userCode,extId,moduleId,sessionId,sessionToken,trialId,executableId,session.complete,session.condition,h7feadsv96qbwdat.givenResponse,h7feadsv96qbwdat.reactionTime,h7feadsv96qbwdat.score,h7feadsv96qbwdat.stimulusValue,h7feadsv96qbwdat.stimulusType,h7feadsv96qbwdat.correctResponse,gy2tjkny3oj3gb7u.givenResponse,gy2tjkny3oj3gb7u.reactionTime,gy2tjkny3oj3gb7u.score,gy2tjkny3oj3gb7u.stimulusValue,gy2tjkny3oj3gb7u.stimulusType,gy2tjkny3oj3gb7u.correctResponse,h3smykoxt14j5hmq.givenResponse,h3smykoxt14j5hmq.reactionTime,h3smykoxt14j5hmq.score,h3smykoxt14j5hmq.stimulusValue,h3smykoxt14j5hmq.stimulusType,h3smykoxt14j5hmq.correctResponse,9jghmi78oithc6si.givenResponse,9jghmi78oithc6si.reactionTime,9jghmi78oithc6si.score,9jghmi78oithc6si.stimulusValue,9jghmi78oithc6si.stimulusType,9jghmi78oithc6si.correctResponse,1exposure.givenResponse,1exposure.reactionTime,1exposure.score,1exposure.stimulusValue,1exposure.stimulusType,1exposure.correctResponse,1recall.givenResponse,1recall.reactionTime,1recall.score,1recall.stimulusValue,1recall.stimulusType,1recall.correctResponse,5u5piib0vyzicxgg.givenResponse,5u5piib0vyzicxgg.reactionTime,5u5piib0vyzicxgg.score,5u5piib0vyzicxgg.stimulusValue,5u5piib0vyzicxgg.stimulusType,5u5piib0vyzicxgg.correctResponse,3s8n5a196mrhre3u.givenResponse,3s8n5a196mrhre3u.reactionTime,3s8n5a196mrhre3u.score,3s8n5a196mrhre3u.stimulusValue,3s8n5a196mrhre3u.stimulusType,3s8n5a196mrhre3u.correctResponse,og9644zzsanwwyux.givenResponse,og9644zzsanwwyux.reactionTime,og9644zzsanwwyux.score,og9644zzsanwwyux.stimulusValue,og9644zzsanwwyux.stimulusType,og9644zzsanwwyux.correctResponse,3gprbqv3v3ka1pca.givenResponse,3gprbqv3v3ka1pca.reactionTime,3gprbqv3v3ka1pca.score,3gprbqv3v3ka1pca.stimulusValue,3gprbqv3v3ka1pca.stimulusType,3gprbqv3v3ka1pca.correctResponse,73xbsb35l4dhkh0p.givenResponse,73xbsb35l4dhkh0p.reactionTime,73xbsb35l4dhkh0p.score,73xbsb35l4dhkh0p.stimulusValue,73xbsb35l4dhkh0p.stimulusType,73xbsb35l4dhkh0p.correctResponse,1zrcws70uqy0uf0t.givenResponse,1zrcws70uqy0uf0t.reactionTime,1zrcws70uqy0uf0t.score,1zrcws70uqy0uf0t.stimulusValue,1zrcws70uqy0uf0t.stimulusType,1zrcws70uqy0uf0t.correctResponse,2hb66z96a6h89cbd.givenResponse,2hb66z96a6h89cbd.reactionTime,2hb66z96a6h89cbd.score,2hb66z96a6h89cbd.stimulusValue,2hb66z96a6h89cbd.stimulusType,2hb66z96a6h89cbd.correctResponse,0msgzuy5n8vp1u2r.givenResponse,0msgzuy5n8vp1u2r.reactionTime,0msgzuy5n8vp1u2r.score,0msgzuy5n8vp1u2r.stimulusValue,0msgzuy5n8vp1u2r.stimulusType,0msgzuy5n8vp1u2r.correctResponse,6nc2wsigm8lx0c1h.givenResponse,6nc2wsigm8lx0c1h.reactionTime,6nc2wsigm8lx0c1h.score,6nc2wsigm8lx0c1h.stimulusValue,6nc2wsigm8lx0c1h.stimulusType,6nc2wsigm8lx0c1h.correctResponse,qb2cc56h97zynih9.givenResponse,qb2cc56h97zynih9.reactionTime,qb2cc56h97zynih9.score,qb2cc56h97zynih9.stimulusValue,qb2cc56h97zynih9.stimulusType,qb2cc56h97zynih9.correctResponse,jtj4uqvkem4udqh3.givenResponse,jtj4uqvkem4udqh3.reactionTime,jtj4uqvkem4udqh3.score,jtj4uqvkem4udqh3.stimulusValue,jtj4uqvkem4udqh3.stimulusType,jtj4uqvkem4udqh3.correctResponse,ahh7pbve55xzpoq8.givenResponse,ahh7pbve55xzpoq8.reactionTime,ahh7pbve55xzpoq8.score,ahh7pbve55xzpoq8.stimulusValue,ahh7pbve55xzpoq8.stimulusType,ahh7pbve55xzpoq8.correctResponse,2exposure.givenResponse,2exposure.reactionTime,2exposure.score,2exposure.stimulusValue,2exposure.stimulusType,2exposure.correctResponse,2response.givenResponse,2response.reactionTime,2response.score,2response.stimulusValue,2response.stimulusType,2response.correctResponse
107993,i7460474,drmtask,1,bhIADPTB1488276290017,1,h7feadsv96qbwdat,1,,,2001.4049999999997,0,swivel,Chair,old
107993,i7460474,drmtask,1,bhIADPTB1488276290017,2,h7feadsv96qbwdat,1,,,2000.8499999999995,0,sofa,Chair,old
107993,i7460474,drmtask,1,bhIADPTB1488276290017,3,h7feadsv96qbwdat,1,,,2000.7199999999993,0,seat,Chair,old
107993,i7460474,drmtask,1,bhIADPTB1488276290017,4,h7feadsv96qbwdat,1,,,2000.7700000000004,0,couch,Chair,old
107993,i7460474,drmtask,1,bhIADPTB1488276290017,5,h7feadsv96qbwdat,1,,,2001.17,0,sitting,Chair,old
107993,i7460474,drmtask,1,bhIADPTB1488276290017,6,h7feadsv96qbwdat,1,,,2000.7249999999985,0,sit,Chair,old
107993,i7460474,drmtask,1,bhIADPTB1488276290017,7,h7feadsv96qbwdat,1,,,2000.4649999999983,0,recliner,Chair,old
107993,i7460474,drmtask,1,bhIADPTB1488276290017,8,h7feadsv96qbwdat,1,,,2000.7900000000009,0,bench,Chair,old
107993,i7460474,drmtask,1,bhIADPTB1488276290017,9,h7feadsv96qbwdat,1,,,2000.5650000000023,0,wood,Chair,old
107993,i7460474,drmtask,1,bhIADPTB1488276290017,10,h7feadsv96qbwdat,1,,,2000.4799999999996,0,legs,Chair,old
107993,i7460474,drmtask,1,bhIADPTB1488276290017,11,h7feadsv96qbwdat,1,,,2000.925000000003,0,desk,Chair,old
107993,i7460474,drmtask,1,bhIADPTB1488276290017,12,h7feadsv96qbwdat,1,,,2000.869999999999,0,table,Chair,old
107993,i7460474,drmtask,1,bhIADPTB1488276290017,13,h7feadsv96qbwdat,1,,,2000.6749999999993,0,stool,Chair,old
107993,i7460474,drmtask,1,bhIADPTB1488276290017,14,h7feadsv96qbwdat,1,,,2001.1150000000016,0,cushion,Chair,old
107993,i7460474,drmtask,1,bhIADPTB1488276290017,15,h7feadsv96qbwdat,1,,,2001.145000000004,0,rocking,Chair,old
107993,i7460474,drmtask,1,bhIADPTB1488276290017,16,gy2tjkny3oj3gb7u,1,,,,,,,,,5000.4749999999985,0,sitting,old,old
107993,i7460474,drmtask,1,bhIADPTB1488276290017,17,gy2tjkny3oj3gb7u,1,,,,,,,,old,3024.604999999996,0,stellar,new,new
107993,i7460474,drmtask,1,bhIADPTB1488276290017,18,gy2tjkny3oj3gb7u,1,,,,,,,,old,1684.875,1,sit,old,old
107993,i7460474,drmtask,1,bhIADPTB1488276290017,19,gy2tjkny3oj3gb7u,1,,,,,,,,new,1017.239999999998,1,amulet,new,new
107993,i7460474,drmtask,1,bhIADPTB1488276290017,20,gy2tjkny3oj3gb7u,1,,,,,,,,old,980.989999999998,1,legs,old,old
107993,i7460474,drmtask,1,bhIADPTB1488276290017,21,gy2tjkny3oj3gb7u,1,,,,,,,,new,1193.4550000000017,1,empires,new,new
107993,i7460474,drmtask,1,bhIADPTB1488276290017,22,gy2tjkny3oj3gb7u,1,,,,,,,,old,1692.760000000002,1,stool,old,old
107993,i7460474,drmtask,1,bhIADPTB1488276290017,23,gy2tjkny3oj3gb7u,1,,,,,,,,new,1481.8700000000026,1,trucks,new,new
107993,i7460474,drmtask,1,bhIADPTB1488276290017,24,gy2tjkny3oj3gb7u,1,,,,,,,,new,742.5050000000047,1,bricks,new,new
107993,i7460474,drmtask,1,bhIADPTB1488276290017,25,gy2tjkny3oj3gb7u,1,,,,,,,,new,661.6100000000006,1,mammals,new,new
107993,i7460474,drmtask,1,bhIADPTB1488276290017,26,gy2tjkny3oj3gb7u,1,,,,,,,,old,767.4099999999962,1,recliner,old,old
107993,i7460474,drmtask,1,bhIADPTB1488276290017,27,gy2tjkny3oj3gb7u,1,,,,,,,,new,720.625,1,teddy,new,new
107993,i7460474,drmtask,1,bhIADPTB1488276290017,28,gy2tjkny3oj3gb7u,1,,,,,,,,old,894.4700000000012,1,bench,old,old
107993,i7460474,drmtask,1,bhIADPTB1488276290017,29,gy2tjkny3oj3gb7u,1,,,,,,,,new,1138.6650000000009,1,slides,new,new
107993,i7460474,drmtask,1,bhIADPTB1488276290017,30,gy2tjkny3oj3gb7u,1,,,,,,,,old,769.25,1,wood,old,old
107993,i7460474,drmtask,1,bhIADPTB1488276290017,31,gy2tjkny3oj3gb7u,1,,,,,,,,new,816.239999999998,1,framed,new,new
107993,i7460474,drmtask,1,bhIADPTB1488276290017,32,gy2tjkny3oj3gb7u,1,,,,,,,,new,1018.1149999999907,1,prudent,new,new
107993,i7460474,drmtask,1,bhIADPTB1488276290017,33,gy2tjkny3oj3gb7u,1,,,,,,,,old,927.3600000000006,1,table,old,old
107993,i7460474,drmtask,1,bhIADPTB1488276290017,34,gy2tjkny3oj3gb7u,1,,,,,,,,new,1046.060000000005,1,dignity,new,new
107993,i7460474,drmtask,1,bhIADPTB1488276290017,35,gy2tjkny3oj3gb7u,1,,,,,,,,old,1024.1549999999988,1,seat,old,old
107993,i7460474,drmtask,1,bhIADPTB1488276290017,36,gy2tjkny3oj3gb7u,1,,,,,,,,old,875.0349999999962,1,couch,old,old
107993,i7460474,drmtask,1,bhIADPTB1488276290017,37,gy2tjkny3oj3gb7u,1,,,,,,,,old,891.4949999999953,1,desk,old,old
107993,i7460474,drmtask,1,bhIADPTB1488276290017,38,gy2tjkny3oj3gb7u,1,,,,,,,,old,830.1600000000035,1,sofa,old,old
107993,i7460474,drmtask,1,bhIADPTB1488276290017,39,gy2tjkny3oj3gb7u,1,,,,,,,,new,899.1499999999942,1,trails,new,new
107993,i7460474,drmtask,1,bhIADPTB1488276290017,40,gy2tjkny3oj3gb7u,1,,,,,,,,new,1036.7200000000012,0,rocking,old,old
107993,i7460474,drmtask,1,bhIADPTB1488276290017,41,gy2tjkny3oj3gb7u,1,,,,,,,,old,676.5000000000146,1,cushion,old,old
107993,i7460474,drmtask,1,bhIADPTB1488276290017,42,gy2tjkny3oj3gb7u,1,,,,,,,,new,1047.5849999999919,1,bearing,new,new
107993,i7460474,drmtask,1,bhIADPTB1488276290017,43,gy2tjkny3oj3gb7u,1,,,,,,,,old,1320.0449999999837,0,chair,lure,new
107993,i7460474,drmtask,1,bhIADPTB1488276290017,44,gy2tjkny3oj3gb7u,1,,,,,,,,new,1299.3949999999895,1,scouts,new,new
107993,i7460474,drmtask,1,bhIADPTB1488276290017,45,gy2tjkny3oj3gb7u,1,,,,,,,,new,962.2200000000012,1,stoned,new,new
107993,i7460474,drmtask,1,bhIADPTB1488276290017,46,gy2tjkny3oj3gb7u,1,,,,,,,,old,769.9300000000076,1,swivel,old,old
107993,i7460474,drmtask,1,bhIADPTB1488276290017,47,h3smykoxt14j5hmq,1,,,,,,,,,,,,,,,2000.7899999999936,0,lettuce,Cabbage,old
107993,i7460474,drmtask,1,bhIADPTB1488276290017,48,h3smykoxt14j5hmq,1,,,,,,,,,,,,,,,2000.4750000000204,0,sauerkraut,Cabbage,old
107993,i7460474,drmtask,1,bhIADPTB1488276290017,49,h3smykoxt14j5hmq,1,,,,,,,,,,,,,,,2000.2649999999994,0,carrots,Cabbage,old
107993,i7460474,drmtask,1,bhIADPTB1488276290017,50,h3smykoxt14j5hmq,1,,,,,,,,,,,,,,,2000.2599999999948,0,broccoli,Cabbage,old
107993,i7460474,drmtask,1,bhIADPTB1488276290017,51,h3smykoxt14j5hmq,1,,,,,,,,,,,,,,,2000.8699999999953,0,green,Cabbage,old
107993,i7460474,drmtask,1,bhIADPTB1488276290017,52,h3smykoxt14j5hmq,1,,,,,,,,,,,,,,,2001.1449999999895,0,plant,Cabbage,old
107993,i7460474,drmtask,1,bhIADPTB1488276290017,53,h3smykoxt14j5hmq,1,,,,,,,,,,,,,,,2000.715000000011,0,smell,Cabbage,old
107993,i7460474,drmtask,1,bhIADPTB1488276290017,54,h3smykoxt14j5hmq,1,,,,,,,,,,,,,,,2000.24500000001,0,slaw,Cabbage,old
107993,i7460474,drmtask,1,bhIADPTB1488276290017,55,h3smykoxt14j5hmq,1,,,,,,,,,,,,,,,2001.0149999999849,0,vegetable,Cabbage,old
107993,i7460474,drmtask,1,bhIADPTB1488276290017,56,h3smykoxt14j5hmq,1,,,,,,,,,,,,,,,2000.284999999989,0,soup,Cabbage,old
107993,i7460474,drmtask,1,bhIADPTB1488276290017,57,h3smykoxt14j5hmq,1,,,,,,,,,,,,,,,2000.6149999999907,0,garden,Cabbage,old
107993,i7460474,drmtask,1,bhIADPTB1488276290017,58,h3smykoxt14j5hmq,1,,,,,,,,,,,,,,,2000.8250000000116,0,head,Cabbage,old
107993,i7460474,drmtask,1,bhIADPTB1488276290017,59,h3smykoxt14j5hmq,1,,,,,,,,,,,,,,,2000.8300000000017,0,leaf,Cabbage,old
107993,i7460474,drmtask,1,bhIADPTB1488276290017,60,h3smykoxt14j5hmq,1,,,,,,,,,,,,,,,2000.9749999999913,0,salad,Cabbage,old
107993,i7460474,drmtask,1,bhIADPTB1488276290017,61,h3smykoxt14j5hmq,1,,,,,,,,,,,,,,,2000.6499999999942,0,patch,Cabbage,old
107993,i7460474,drmtask,1,bhIADPTB1488276290017,62,9jghmi78oithc6si,1,,,,,,,,,,,,,,,,,,,,new,1723.3399999999965,0,smell,old,old
107993,i7460474,drmtask,1,bhIADPTB1488276290017,63,9jghmi78oithc6si,1,,,,,,,,,,,,,,,,,,,,new,901.8899999999994,1,hound,new,new
107993,i7460474,drmtask,1,bhIADPTB1488276290017,64,9jghmi78oithc6si,1,,,,,,,,,,,,,,,,,,,,new,642.9699999999866,1,burns,new,new
107993,i7460474,drmtask,1,bhIADPTB1488276290017,65,9jghmi78oithc6si,1,,,,,,,,,,,,,,,,,,,,old,869,1,broccoli,old,old
107993,i7460474,drmtask,1,bhIADPTB1488276290017,66,9jghmi78oithc6si,1,,,,,,,,,,,,,,,,,,,,new,1234.5850000000064,1,buys,new,new
107993,i7460474,drmtask,1,bhIADPTB1488276290017,67,9jghmi78oithc6si,1,,,,,,,,,,,,,,,,,,,,old,879.6549999999988,1,plant,old,old
107993,i7460474,drmtask,1,bhIADPTB1488276290017,68,9jghmi78oithc6si,1,,,,,,,,,,,,,,,,,,,,old,859.4850000000006,1,slaw,old,old
107993,i7460474,drmtask,1,bhIADPTB1488276290017,69,9jghmi78oithc6si,1,,,,,,,,,,,,,,,,,,,,new,1411.1399999999994,0,head,old,old
107993,i7460474,drmtask,1,bhIADPTB1488276290017,70,9jghmi78oithc6si,1,,,,,,,,,,,,,,,,,,,,old,570.3000000000175,1,soup,old,old
107993,i7460474,drmtask,1,bhIADPTB1488276290017,71,9jghmi78oithc6si,1,,,,,,,,,,,,,,,,,,,,old,916.6500000000087,1,patch,old,old
107993,i7460474,drmtask,1,bhIADPTB1488276290017,72,9jghmi78oithc6si,1,,,,,,,,,,,,,,,,,,,,new,661.5749999999971,1,lasts,new,new
107993,i7460474,drmtask,1,bhIADPTB1488276290017,73,9jghmi78oithc6si,1,,,,,,,,,,,,,,,,,,,,new,1620.7600000000093,1,coaches,new,new
107993,i7460474,drmtask,1,bhIADPTB1488276290017,74,9jghmi78oithc6si,1,,,,,,,,,,,,,,,,,,,,old,1719.5149999999994,0,arrow,new,new
107993,i7460474,drmtask,1,bhIADPTB1488276290017,75,9jghmi78oithc6si,1,,,,,,,,,,,,,,,,,,,,new,758.8950000000041,1,fined,new,new
107993,i7460474,drmtask,1,bhIADPTB1488276290017,76,9jghmi78oithc6si,1,,,,,,,,,,,,,,,,,,,,new,1226.4049999999988,1,reject,new,new
107993,i7460474,drmtask,1,bhIADPTB1488276290017,77,9jghmi78oithc6si,1,,,,,,,,,,,,,,,,,,,,new,1804.8450000000012,0,green,old,old
107993,i7460474,drmtask,1,bhIADPTB1488276290017,78,9jghmi78oithc6si,1,,,,,,,,,,,,,,,,,,,,new,787.6700000000128,1,schemes,new,new
107993,i7460474,drmtask,1,bhIADPTB1488276290017,79,9jghmi78oithc6si,1,,,,,,,,,,,,,,,,,,,,old,653.7400000000052,1,leaf,old,old
107993,i7460474,drmtask,1,bhIADPTB1488276290017,80,9jghmi78oithc6si,1,,,,,,,,,,,,,,,,,,,,old,689.4100000000035,1,lettuce,old,old
107993,i7460474,drmtask,1,bhIADPTB1488276290017,81,9jghmi78oithc6si,1,,,,,,,,,,,,,,,,,,,,new,961.3000000000175,1,cabbage,lure,new
107993,i7460474,drmtask,1,bhIADPTB1488276290017,82,9jghmi78oithc6si,1,,,,,,,,,,,,,,,,,,,,new,1261.8149999999878,1,relying,new,new
107993,i7460474,drmtask,1,bhIADPTB1488276290017,83,9jghmi78oithc6si,1,,,,,,,,,,,,,,,,,,,,old,733.4699999999866,1,vegetable,old,old
107993,i7460474,drmtask,1,bhIADPTB1488276290017,84,9jghmi78oithc6si,1,,,,,,,,,,,,,,,,,,,,new,971.6850000000122,1,wander,new,new
107993,i7460474,drmtask,1,bhIADPTB1488276290017,85,9jghmi78oithc6si,1,,,,,,,,,,,,,,,,,,,,new,800.0299999999988,1,stein,new,new
107993,i7460474,drmtask,1,bhIADPTB1488276290017,86,9jghmi78oithc6si,1,,,,,,,,,,,,,,,,,,,,old,1068.090000000011,1,garden,old,old
107993,i7460474,drmtask,1,bhIADPTB1488276290017,87,9jghmi78oithc6si,1,,,,,,,,,,,,,,,,,,,,new,745.5600000000122,1,coyote,new,new
107993,i7460474,drmtask,1,bhIADPTB1488276290017,88,9jghmi78oithc6si,1,,,,,,,,,,,,,,,,,,,,new,939.2200000000012,1,aiming,new,new
107993,i7460474,drmtask,1,bhIADPTB1488276290017,89,9jghmi78oithc6si,1,,,,,,,,,,,,,,,,,,,,old,939.5900000000256,1,sauerkraut,old,old
107993,i7460474,drmtask,1,bhIADPTB1488276290017,90,9jghmi78oithc6si,1,,,,,,,,,,,,,,,,,,,,old,1108.5899999999965,1,carrots,old,old
107993,i7460474,drmtask,1,bhIADPTB1488276290017,91,9jghmi78oithc6si,1,,,,,,,,,,,,,,,,,,,,old,843.5599999999977,1,salad,old,old
107993,i7460474,drmtask,1,bhIADPTB1488276290017,92,9jghmi78oithc6si,1,,,,,,,,,,,,,,,,,,,,new,723.8249999999825,1,lacks,new,new
107993,i7460474,drmtask,1,bhIADPTB1488276290017,93,1exposure,1,,,,,,,,,,,,,,,,,,,,,,,,,,,2001.2000000000116,0,girls,Beautiful,old
107993,i7460474,drmtask,1,bhIADPTB1488276290017,94,1exposure,1,,,,,,,,,,,,,,,,,,,,,,,,,,,2001.0600000000268,0,lovely,Beautiful,old
107993,i7460474,drmtask,1,bhIADPTB1488276290017,95,1exposure,1,,,,,,,,,,,,,,,,,,,,,,,,,,,2000.820000000007,0,pretty,Beautiful,old
107993,i7460474,drmtask,1,bhIADPTB1488276290017,96,1exposure,1,,,,,,,,,,,,,,,,,,,,,,,,,,,2000.945000000007,0,woman,Beautiful,old
107993,i7460474,drmtask,1,bhIADPTB1488276290017,97,1exposure,1,,,,,,,,,,,,,,,,,,,,,,,,,,,2000.5499999999884,0,picture,Beautiful,old
107993,i7460474,drmtask,1,bhIADPTB1488276290017,98,1exposure,1,,,,,,,,,,,,,,,,,,,,,,,,,,,2000.4199999999837,0,day,Beautiful,old
107993,i7460474,drmtask,1,bhIADPTB1488276290017,99,1exposure,1,,,,,,,,,,,,,,,,,,,,,,,,,,,2000.9949999999953,0,gorgeous,Beautiful,old
107993,i7460474,drmtask,1,bhIADPTB1488276290017,100,1exposure,1,,,,,,,,,,,,,,,,,,,,,,,,,,,2000.4950000000244,0,nice,Beautiful,old
107993,i7460474,drmtask,1,bhIADPTB1488276290017,101,1exposure,1,,,,,,,,,,,,,,,,,,,,,,,,,,,2000.859999999986,0,ugly,Beautiful,old
107993,i7460474,drmtask,1,bhIADPTB1488276290017,102,1exposure,1,,,,,,,,,,,,,,,,,,,,,,,,,,,2000.25,0,music,Beautiful,old
107993,i7460474,drmtask,1,bhIADPTB1488276290017,103,1exposure,1,,,,,,,,,,,,,,,,,,,,,,,,,,,2000.8899999999849,0,lady,Beautiful,old
107993,i7460474,drmtask,1,bhIADPTB1488276290017,104,1exposure,1,,,,,,,,,,,,,,,,,,,,,,,,,,,2000.6750000000175,0,scene,Beautiful,old
107993,i7460474,drmtask,1,bhIADPTB1488276290017,105,1exposure,1,,,,,,,,,,,,,,,,,,,,,,,,,,,2001.1200000000244,0,snow,Beautiful,old
107993,i7460474,drmtask,1,bhIADPTB1488276290017,106,1exposure,1,,,,,,,,,,,,,,,,,,,,,,,,,,,2000.3899999999558,0,mountain,Beautiful,old
107993,i7460474,drmtask,1,bhIADPTB1488276290017,107,1exposure,1,,,,,,,,,,,,,,,,,,,,,,,,,,,2000.3849999999802,0,homely,Beautiful,old
107993,i7460474,drmtask,1,bhIADPTB1488276290017,108,1recall,1,,,,,,,,,,,,,,,,,,,,,,,,,,,,,,,,new,1485.4949999999953,0,lady,old,old
107993,i7460474,drmtask,1,bhIADPTB1488276290017,109,1recall,1,,,,,,,,,,,,,,,,,,,,,,,,,,,,,,,,new,972.9000000000233,0,day,old,old
107993,i7460474,drmtask,1,bhIADPTB1488276290017,110,1recall,1,,,,,,,,,,,,,,,,,,,,,,,,,,,,,,,,old,1122.8150000000023,1,homely,old,old
107993,i7460474,drmtask,1,bhIADPTB1488276290017,111,1recall,1,,,,,,,,,,,,,,,,,,,,,,,,,,,,,,,,new,871.25,1,sailors,new,new
107993,i7460474,drmtask,1,bhIADPTB1488276290017,112,1recall,1,,,,,,,,,,,,,,,,,,,,,,,,,,,,,,,,new,911.054999999993,1,terrain,new,new
107993,i7460474,drmtask,1,bhIADPTB1488276290017,113,1recall,1,,,,,,,,,,,,,,,,,,,,,,,,,,,,,,,,new,637.4049999999697,1,spoiled,new,new
107993,i7460474,drmtask,1,bhIADPTB1488276290017,114,1recall,1,,,,,,,,,,,,,,,,,,,,,,,,,,,,,,,,old,1036.7050000000163,1,mountain,old,old
107993,i7460474,drmtask,1,bhIADPTB1488276290017,115,1recall,1,,,,,,,,,,,,,,,,,,,,,,,,,,,,,,,,new,839.3699999999953,1,chassis,new,new
107993,i7460474,drmtask,1,bhIADPTB1488276290017,116,1recall,1,,,,,,,,,,,,,,,,,,,,,,,,,,,,,,,,old,631.6700000000128,1,pretty,old,old
107993,i7460474,drmtask,1,bhIADPTB1488276290017,117,1recall,1,,,,,,,,,,,,,,,,,,,,,,,,,,,,,,,,old,777.9500000000116,1,lovely,old,old
107993,i7460474,drmtask,1,bhIADPTB1488276290017,118,1recall,1,,,,,,,,,,,,,,,,,,,,,,,,,,,,,,,,new,1813.7249999999767,1,beautiful,lure,new
107993,i7460474,drmtask,1,bhIADPTB1488276290017,119,1recall,1,,,,,,,,,,,,,,,,,,,,,,,,,,,,,,,,new,909.4349999999977,1,thrill,new,new
107993,i7460474,drmtask,1,bhIADPTB1488276290017,120,1recall,1,,,,,,,,,,,,,,,,,,,,,,,,,,,,,,,,old,685.320000000007,1,woman,old,old
107993,i7460474,drmtask,1,bhIADPTB1488276290017,121,1recall,1,,,,,,,,,,,,,,,,,,,,,,,,,,,,,,,,old,1951.9000000000233,1,nice,old,old
107993,i7460474,drmtask,1,bhIADPTB1488276290017,122,1recall,1,,,,,,,,,,,,,,,,,,,,,,,,,,,,,,,,new,881.8600000000151,1,breathe,new,new
107993,i7460474,drmtask,1,bhIADPTB1488276290017,123,1recall,1,,,,,,,,,,,,,,,,,,,,,,,,,,,,,,,,new,653.7900000000081,1,counsel,new,new
107993,i7460474,drmtask,1,bhIADPTB1488276290017,124,1recall,1,,,,,,,,,,,,,,,,,,,,,,,,,,,,,,,,new,797.0950000000303,1,remake,new,new
107993,i7460474,drmtask,1,bhIADPTB1488276290017,125,1recall,1,,,,,,,,,,,,,,,,,,,,,,,,,,,,,,,,old,826.9150000000081,1,girls,old,old
107993,i7460474,drmtask,1,bhIADPTB1488276290017,126,1recall,1,,,,,,,,,,,,,,,,,,,,,,,,,,,,,,,,new,897.164999999979,1,bolo,new,new
107993,i7460474,drmtask,1,bhIADPTB1488276290017,127,1recall,1,,,,,,,,,,,,,,,,,,,,,,,,,,,,,,,,new,1080.2749999999942,0,picture,old,old
107993,i7460474,drmtask,1,bhIADPTB1488276290017,128,1recall,1,,,,,,,,,,,,,,,,,,,,,,,,,,,,,,,,old,837.1300000000047,1,scene,old,old
107993,i7460474,drmtask,1,bhIADPTB1488276290017,129,1recall,1,,,,,,,,,,,,,,,,,,,,,,,,,,,,,,,,new,783.2449999999953,1,cursed,new,new
107993,i7460474,drmtask,1,bhIADPTB1488276290017,130,1recall,1,,,,,,,,,,,,,,,,,,,,,,,,,,,,,,,,new,1391.5199999999895,1,bikini,new,new
107993,i7460474,drmtask,1,bhIADPTB1488276290017,131,1recall,1,,,,,,,,,,,,,,,,,,,,,,,,,,,,,,,,new,2164.2999999999884,0,ugly,old,old
107993,i7460474,drmtask,1,bhIADPTB1488276290017,132,1recall,1,,,,,,,,,,,,,,,,,,,,,,,,,,,,,,,,new,610.8500000000058,1,veil,new,new
107993,i7460474,drmtask,1,bhIADPTB1488276290017,133,1recall,1,,,,,,,,,,,,,,,,,,,,,,,,,,,,,,,,old,901.3549999999814,1,music,old,old
107993,i7460474,drmtask,1,bhIADPTB1488276290017,134,1recall,1,,,,,,,,,,,,,,,,,,,,,,,,,,,,,,,,old,762.179999999993,1,snow,old,old
107993,i7460474,drmtask,1,bhIADPTB1488276290017,135,1recall,1,,,,,,,,,,,,,,,,,,,,,,,,,,,,,,,,new,770.0550000000221,1,retire,new,new
107993,i7460474,drmtask,1,bhIADPTB1488276290017,136,1recall,1,,,,,,,,,,,,,,,,,,,,,,,,,,,,,,,,new,1356.8700000000244,1,hubs,new,new
107993,i7460474,drmtask,1,bhIADPTB1488276290017,137,1recall,1,,,,,,,,,,,,,,,,,,,,,,,,,,,,,,,,new,811.7149999999965,1,totals,new,new
107993,i7460474,drmtask,1,bhIADPTB1488276290017,138,1recall,1,,,,,,,,,,,,,,,,,,,,,,,,,,,,,,,,old,773.8349999999919,1,gorgeous,old,old
107993,i7460474,drmtask,1,bhIADPTB1488276290017,139,5u5piib0vyzicxgg,1,,,,,,,,,,,,,,,,,,,,,,,,,,,,,,,,,,,,,,,2000.5950000000303,0,coffee,Cup,old
107993,i7460474,drmtask,1,bhIADPTB1488276290017,140,5u5piib0vyzicxgg,1,,,,,,,,,,,,,,,,,,,,,,,,,,,,,,,,,,,,,,,2000.2200000000012,0,sip,Cup,old
107993,i7460474,drmtask,1,bhIADPTB1488276290017,141,5u5piib0vyzicxgg,1,,,,,,,,,,,,,,,,,,,,,,,,,,,,,,,,,,,,,,,2000.3399999999965,0,lid,Cup,old
107993,i7460474,drmtask,1,bhIADPTB1488276290017,142,5u5piib0vyzicxgg,1,,,,,,,,,,,,,,,,,,,,,,,,,,,,,,,,,,,,,,,2000.539999999979,0,drink,Cup,old
107993,i7460474,drmtask,1,bhIADPTB1488276290017,143,5u5piib0vyzicxgg,1,,,,,,,,,,,,,,,,,,,,,,,,,,,,,,,,,,,,,,,2000.3150000000023,0,goblet,Cup,old
107993,i7460474,drmtask,1,bhIADPTB1488276290017,144,5u5piib0vyzicxgg,1,,,,,,,,,,,,,,,,,,,,,,,,,,,,,,,,,,,,,,,2000.4750000000058,0,soup,Cup,old
107993,i7460474,drmtask,1,bhIADPTB1488276290017,145,5u5piib0vyzicxgg,1,,,,,,,,,,,,,,,,,,,,,,,,,,,,,,,,,,,,,,,2000.7999999999884,0,handle,Cup,old
107993,i7460474,drmtask,1,bhIADPTB1488276290017,146,5u5piib0vyzicxgg,1,,,,,,,,,,,,,,,,,,,,,,,,,,,,,,,,,,,,,,,2001.0199999999895,0,measuring,Cup,old
107993,i7460474,drmtask,1,bhIADPTB1488276290017,147,5u5piib0vyzicxgg,1,,,,,,,,,,,,,,,,,,,,,,,,,,,,,,,,,,,,,,,2000.6700000000128,0,tea,Cup,old
107993,i7460474,drmtask,1,bhIADPTB1488276290017,148,5u5piib0vyzicxgg,1,,,,,,,,,,,,,,,,,,,,,,,,,,,,,,,,,,,,,,,2000.7149999999965,0,saucer,Cup,old
107993,i7460474,drmtask,1,bhIADPTB1488276290017,149,5u5piib0vyzicxgg,1,,,,,,,,,,,,,,,,,,,,,,,,,,,,,,,,,,,,,,,2000.4150000000081,0,stein,Cup,old
107993,i7460474,drmtask,1,bhIADPTB1488276290017,150,5u5piib0vyzicxgg,1,,,,,,,,,,,,,,,,,,,,,,,,,,,,,,,,,,,,,,,2000.289999999979,0,plastic,Cup,old
107993,i7460474,drmtask,1,bhIADPTB1488276290017,151,5u5piib0vyzicxgg,1,,,,,,,,,,,,,,,,,,,,,,,,,,,,,,,,,,,,,,,2000.7949999999837,0,mug,Cup,old
107993,i7460474,drmtask,1,bhIADPTB1488276290017,152,5u5piib0vyzicxgg,1,,,,,,,,,,,,,,,,,,,,,,,,,,,,,,,,,,,,,,,2000.820000000007,0,coaster,Cup,old
107993,i7460474,drmtask,1,bhIADPTB1488276290017,153,5u5piib0vyzicxgg,1,,,,,,,,,,,,,,,,,,,,,,,,,,,,,,,,,,,,,,,2000.8849999999802,0,straw,Cup,old
107993,i7460474,drmtask,1,bhIADPTB1488276290017,154,3s8n5a196mrhre3u,1,,,,,,,,,,,,,,,,,,,,,,,,,,,,,,,,,,,,,,,,,,,,old,1709.2949999999837,1,stein,old,old
107993,i7460474,drmtask,1,bhIADPTB1488276290017,155,3s8n5a196mrhre3u,1,,,,,,,,,,,,,,,,,,,,,,,,,,,,,,,,,,,,,,,,,,,,new,855.3799999999756,1,lunar,new,new
107993,i7460474,drmtask,1,bhIADPTB1488276290017,156,3s8n5a196mrhre3u,1,,,,,,,,,,,,,,,,,,,,,,,,,,,,,,,,,,,,,,,,,,,,new,2506.2550000000047,1,climbs,new,new
107993,i7460474,drmtask,1,bhIADPTB1488276290017,157,3s8n5a196mrhre3u,1,,,,,,,,,,,,,,,,,,,,,,,,,,,,,,,,,,,,,,,,,,,,old,917.4200000000419,1,saucer,old,old
107993,i7460474,drmtask,1,bhIADPTB1488276290017,158,3s8n5a196mrhre3u,1,,,,,,,,,,,,,,,,,,,,,,,,,,,,,,,,,,,,,,,,,,,,new,992.820000000007,1,nimbus,new,new
107993,i7460474,drmtask,1,bhIADPTB1488276290017,159,3s8n5a196mrhre3u,1,,,,,,,,,,,,,,,,,,,,,,,,,,,,,,,,,,,,,,,,,,,,old,1041.6149999999616,1,goblet,old,old
107993,i7460474,drmtask,1,bhIADPTB1488276290017,160,3s8n5a196mrhre3u,1,,,,,,,,,,,,,,,,,,,,,,,,,,,,,,,,,,,,,,,,,,,,new,1829.3899999999849,0,coaster,old,old
107993,i7460474,drmtask,1,bhIADPTB1488276290017,161,3s8n5a196mrhre3u,1,,,,,,,,,,,,,,,,,,,,,,,,,,,,,,,,,,,,,,,,,,,,new,2270.9199999999837,0,measuring,old,old
107993,i7460474,drmtask,1,bhIADPTB1488276290017,162,3s8n5a196mrhre3u,1,,,,,,,,,,,,,,,,,,,,,,,,,,,,,,,,,,,,,,,,,,,,old,918.0500000000175,1,straw,old,old
107993,i7460474,drmtask,1,bhIADPTB1488276290017,163,3s8n5a196mrhre3u,1,,,,,,,,,,,,,,,,,,,,,,,,,,,,,,,,,,,,,,,,,,,,new,732.5000000000291,1,empathy,new,new
107993,i7460474,drmtask,1,bhIADPTB1488276290017,164,3s8n5a196mrhre3u,1,,,,,,,,,,,,,,,,,,,,,,,,,,,,,,,,,,,,,,,,,,,,new,724.3649999999907,1,grains,new,new
107993,i7460474,drmtask,1,bhIADPTB1488276290017,165,3s8n5a196mrhre3u,1,,,,,,,,,,,,,,,,,,,,,,,,,,,,,,,,,,,,,,,,,,,,new,704.5249999999942,1,matched,new,new
107993,i7460474,drmtask,1,bhIADPTB1488276290017,166,3s8n5a196mrhre3u,1,,,,,,,,,,,,,,,,,,,,,,,,,,,,,,,,,,,,,,,,,,,,old,821.6549999999988,1,plastic,old,old
107993,i7460474,drmtask,1,bhIADPTB1488276290017,167,3s8n5a196mrhre3u,1,,,,,,,,,,,,,,,,,,,,,,,,,,,,,,,,,,,,,,,,,,,,old,751.570000000007,1,tea,old,old
107993,i7460474,drmtask,1,bhIADPTB1488276290017,168,3s8n5a196mrhre3u,1,,,,,,,,,,,,,,,,,,,,,,,,,,,,,,,,,,,,,,,,,,,,new,1099.0749999999825,0,drink,old,old
107993,i7460474,drmtask,1,bhIADPTB1488276290017,169,3s8n5a196mrhre3u,1,,,,,,,,,,,,,,,,,,,,,,,,,,,,,,,,,,,,,,,,,,,,old,779.8099999999977,1,sip,old,old
107993,i7460474,drmtask,1,bhIADPTB1488276290017,170,3s8n5a196mrhre3u,1,,,,,,,,,,,,,,,,,,,,,,,,,,,,,,,,,,,,,,,,,,,,old,890.9599999999919,0,cup,lure,new
107993,i7460474,drmtask,1,bhIADPTB1488276290017,171,3s8n5a196mrhre3u,1,,,,,,,,,,,,,,,,,,,,,,,,,,,,,,,,,,,,,,,,,,,,new,709.2949999999837,1,froze,new,new
107993,i7460474,drmtask,1,bhIADPTB1488276290017,172,3s8n5a196mrhre3u,1,,,,,,,,,,,,,,,,,,,,,,,,,,,,,,,,,,,,,,,,,,,,new,898.929999999993,1,builds,new,new
107993,i7460474,drmtask,1,bhIADPTB1488276290017,173,3s8n5a196mrhre3u,1,,,,,,,,,,,,,,,,,,,,,,,,,,,,,,,,,,,,,,,,,,,,new,967.2850000000035,1,trails,new,new
107993,i7460474,drmtask,1,bhIADPTB1488276290017,174,3s8n5a196mrhre3u,1,,,,,,,,,,,,,,,,,,,,,,,,,,,,,,,,,,,,,,,,,,,,new,658.414999999979,1,lotion,new,new
107993,i7460474,drmtask,1,bhIADPTB1488276290017,175,3s8n5a196mrhre3u,1,,,,,,,,,,,,,,,,,,,,,,,,,,,,,,,,,,,,,,,,,,,,new,1051.1100000000442,0,handle,old,old
107993,i7460474,drmtask,1,bhIADPTB1488276290017,176,3s8n5a196mrhre3u,1,,,,,,,,,,,,,,,,,,,,,,,,,,,,,,,,,,,,,,,,,,,,new,706.625,1,chords,new,new
107993,i7460474,drmtask,1,bhIADPTB1488276290017,177,3s8n5a196mrhre3u,1,,,,,,,,,,,,,,,,,,,,,,,,,,,,,,,,,,,,,,,,,,,,old,741.820000000007,1,coffee,old,old
107993,i7460474,drmtask,1,bhIADPTB1488276290017,178,3s8n5a196mrhre3u,1,,,,,,,,,,,,,,,,,,,,,,,,,,,,,,,,,,,,,,,,,,,,new,895.9500000000116,1,slice,new,new
107993,i7460474,drmtask,1,bhIADPTB1488276290017,179,3s8n5a196mrhre3u,1,,,,,,,,,,,,,,,,,,,,,,,,,,,,,,,,,,,,,,,,,,,,old,1071.7399999999907,1,mug,old,old
107993,i7460474,drmtask,1,bhIADPTB1488276290017,180,3s8n5a196mrhre3u,1,,,,,,,,,,,,,,,,,,,,,,,,,,,,,,,,,,,,,,,,,,,,old,822.2150000000256,1,lid,old,old
107993,i7460474,drmtask,1,bhIADPTB1488276290017,181,3s8n5a196mrhre3u,1,,,,,,,,,,,,,,,,,,,,,,,,,,,,,,,,,,,,,,,,,,,,new,971.7750000000233,1,stacked,new,new
107993,i7460474,drmtask,1,bhIADPTB1488276290017,182,3s8n5a196mrhre3u,1,,,,,,,,,,,,,,,,,,,,,,,,,,,,,,,,,,,,,,,,,,,,old,810.1200000000536,1,soup,old,old
107993,i7460474,drmtask,1,bhIADPTB1488276290017,183,3s8n5a196mrhre3u,1,,,,,,,,,,,,,,,,,,,,,,,,,,,,,,,,,,,,,,,,,,,,new,1048.8850000000384,1,canter,new,new
107993,i7460474,drmtask,1,bhIADPTB1488276290017,184,3s8n5a196mrhre3u,1,,,,,,,,,,,,,,,,,,,,,,,,,,,,,,,,,,,,,,,,,,,,new,630.5600000000268,1,drained,new,new
107993,i7460474,drmtask,1,bhIADPTB1488276290017,185,og9644zzsanwwyux,1,,,,,,,,,,,,,,,,,,,,,,,,,,,,,,,,,,,,,,,,,,,,,,,,,,,2000.8199999999779,0,butter,Bread,old
107993,i7460474,drmtask,1,bhIADPTB1488276290017,186,og9644zzsanwwyux,1,,,,,,,,,,,,,,,,,,,,,,,,,,,,,,,,,,,,,,,,,,,,,,,,,,,2000.8800000000047,0,food,Bread,old
107993,i7460474,drmtask,1,bhIADPTB1488276290017,187,og9644zzsanwwyux,1,,,,,,,,,,,,,,,,,,,,,,,,,,,,,,,,,,,,,,,,,,,,,,,,,,,2001.0599999999977,0,wine,Bread,old
107993,i7460474,drmtask,1,bhIADPTB1488276290017,188,og9644zzsanwwyux,1,,,,,,,,,,,,,,,,,,,,,,,,,,,,,,,,,,,,,,,,,,,,,,,,,,,2000.829999999958,0,jelly,Bread,old
107993,i7460474,drmtask,1,bhIADPTB1488276290017,189,og9644zzsanwwyux,1,,,,,,,,,,,,,,,,,,,,,,,,,,,,,,,,,,,,,,,,,,,,,,,,,,,2000.7350000000442,0,slice,Bread,old
107993,i7460474,drmtask,1,bhIADPTB1488276290017,190,og9644zzsanwwyux,1,,,,,,,,,,,,,,,,,,,,,,,,,,,,,,,,,,,,,,,,,,,,,,,,,,,2001.079999999958,0,eat,Bread,old
107993,i7460474,drmtask,1,bhIADPTB1488276290017,191,og9644zzsanwwyux,1,,,,,,,,,,,,,,,,,,,,,,,,,,,,,,,,,,,,,,,,,,,,,,,,,,,2000.670000000042,0,milk,Bread,old
107993,i7460474,drmtask,1,bhIADPTB1488276290017,192,og9644zzsanwwyux,1,,,,,,,,,,,,,,,,,,,,,,,,,,,,,,,,,,,,,,,,,,,,,,,,,,,2001.1199999999371,0,toast,Bread,old
107993,i7460474,drmtask,1,bhIADPTB1488276290017,193,og9644zzsanwwyux,1,,,,,,,,,,,,,,,,,,,,,,,,,,,,,,,,,,,,,,,,,,,,,,,,,,,2001.1749999999884,0,jam,Bread,old
107993,i7460474,drmtask,1,bhIADPTB1488276290017,194,og9644zzsanwwyux,1,,,,,,,,,,,,,,,,,,,,,,,,,,,,,,,,,,,,,,,,,,,,,,,,,,,2000.3949999999604,0,flour,Bread,old
107993,i7460474,drmtask,1,bhIADPTB1488276290017,195,og9644zzsanwwyux,1,,,,,,,,,,,,,,,,,,,,,,,,,,,,,,,,,,,,,,,,,,,,,,,,,,,2001.0750000000116,0,rye,Bread,old
107993,i7460474,drmtask,1,bhIADPTB1488276290017,196,og9644zzsanwwyux,1,,,,,,,,,,,,,,,,,,,,,,,,,,,,,,,,,,,,,,,,,,,,,,,,,,,2001.1350000000093,0,crust,Bread,old
107993,i7460474,drmtask,1,bhIADPTB1488276290017,197,og9644zzsanwwyux,1,,,,,,,,,,,,,,,,,,,,,,,,,,,,,,,,,,,,,,,,,,,,,,,,,,,2000.835000000021,0,loaf,Bread,old
107993,i7460474,drmtask,1,bhIADPTB1488276290017,198,og9644zzsanwwyux,1,,,,,,,,,,,,,,,,,,,,,,,,,,,,,,,,,,,,,,,,,,,,,,,,,,,2000.8949999999604,0,sandwich,Bread,old
107993,i7460474,drmtask,1,bhIADPTB1488276290017,199,og9644zzsanwwyux,1,,,,,,,,,,,,,,,,,,,,,,,,,,,,,,,,,,,,,,,,,,,,,,,,,,,2001.1149999999907,0,dough,Bread,old
107993,i7460474,drmtask,1,bhIADPTB1488276290017,200,3gprbqv3v3ka1pca,1,,,,,,,,,,,,,,,,,,,,,,,,,,,,,,,,,,,,,,,,,,,,,,,,,,,,,,,,old,2833.0250000000233,1,sandwich,old,old
107993,i7460474,drmtask,1,bhIADPTB1488276290017,201,3gprbqv3v3ka1pca,1,,,,,,,,,,,,,,,,,,,,,,,,,,,,,,,,,,,,,,,,,,,,,,,,,,,,,,,,new,850.2749999999651,1,minion,new,new
107993,i7460474,drmtask,1,bhIADPTB1488276290017,202,3gprbqv3v3ka1pca,1,,,,,,,,,,,,,,,,,,,,,,,,,,,,,,,,,,,,,,,,,,,,,,,,,,,,,,,,new,1148.795000000042,0,eat,old,old
107993,i7460474,drmtask,1,bhIADPTB1488276290017,203,3gprbqv3v3ka1pca,1,,,,,,,,,,,,,,,,,,,,,,,,,,,,,,,,,,,,,,,,,,,,,,,,,,,,,,,,new,614.4749999999767,1,throne,new,new
107993,i7460474,drmtask,1,bhIADPTB1488276290017,204,3gprbqv3v3ka1pca,1,,,,,,,,,,,,,,,,,,,,,,,,,,,,,,,,,,,,,,,,,,,,,,,,,,,,,,,,old,717.3099999999977,1,jam,old,old
107993,i7460474,drmtask,1,bhIADPTB1488276290017,205,3gprbqv3v3ka1pca,1,,,,,,,,,,,,,,,,,,,,,,,,,,,,,,,,,,,,,,,,,,,,,,,,,,,,,,,,new,736.7800000000279,1,dune,new,new
107993,i7460474,drmtask,1,bhIADPTB1488276290017,206,3gprbqv3v3ka1pca,1,,,,,,,,,,,,,,,,,,,,,,,,,,,,,,,,,,,,,,,,,,,,,,,,,,,,,,,,old,723.5100000000093,1,loaf,old,old
107993,i7460474,drmtask,1,bhIADPTB1488276290017,207,3gprbqv3v3ka1pca,1,,,,,,,,,,,,,,,,,,,,,,,,,,,,,,,,,,,,,,,,,,,,,,,,,,,,,,,,old,992.6900000000023,1,flour,old,old
107993,i7460474,drmtask,1,bhIADPTB1488276290017,208,3gprbqv3v3ka1pca,1,,,,,,,,,,,,,,,,,,,,,,,,,,,,,,,,,,,,,,,,,,,,,,,,,,,,,,,,old,835.7849999999744,1,wine,old,old
107993,i7460474,drmtask,1,bhIADPTB1488276290017,209,3gprbqv3v3ka1pca,1,,,,,,,,,,,,,,,,,,,,,,,,,,,,,,,,,,,,,,,,,,,,,,,,,,,,,,,,new,762.2449999999953,1,drying,new,new
107993,i7460474,drmtask,1,bhIADPTB1488276290017,210,3gprbqv3v3ka1pca,1,,,,,,,,,,,,,,,,,,,,,,,,,,,,,,,,,,,,,,,,,,,,,,,,,,,,,,,,old,746.484999999986,1,jelly,old,old
107993,i7460474,drmtask,1,bhIADPTB1488276290017,211,3gprbqv3v3ka1pca,1,,,,,,,,,,,,,,,,,,,,,,,,,,,,,,,,,,,,,,,,,,,,,,,,,,,,,,,,new,713.2849999999744,1,geology,new,new
107993,i7460474,drmtask,1,bhIADPTB1488276290017,212,3gprbqv3v3ka1pca,1,,,,,,,,,,,,,,,,,,,,,,,,,,,,,,,,,,,,,,,,,,,,,,,,,,,,,,,,new,731.960000000021,0,food,old,old
107993,i7460474,drmtask,1,bhIADPTB1488276290017,213,3gprbqv3v3ka1pca,1,,,,,,,,,,,,,,,,,,,,,,,,,,,,,,,,,,,,,,,,,,,,,,,,,,,,,,,,new,624.4349999999977,1,longest,new,new
107993,i7460474,drmtask,1,bhIADPTB1488276290017,214,3gprbqv3v3ka1pca,1,,,,,,,,,,,,,,,,,,,,,,,,,,,,,,,,,,,,,,,,,,,,,,,,,,,,,,,,old,797.3899999999558,1,toast,old,old
107993,i7460474,drmtask,1,bhIADPTB1488276290017,215,3gprbqv3v3ka1pca,1,,,,,,,,,,,,,,,,,,,,,,,,,,,,,,,,,,,,,,,,,,,,,,,,,,,,,,,,old,867.8500000000349,1,dough,old,old
107993,i7460474,drmtask,1,bhIADPTB1488276290017,216,3gprbqv3v3ka1pca,1,,,,,,,,,,,,,,,,,,,,,,,,,,,,,,,,,,,,,,,,,,,,,,,,,,,,,,,,old,903.9450000000652,1,slice,old,old
107993,i7460474,drmtask,1,bhIADPTB1488276290017,217,3gprbqv3v3ka1pca,1,,,,,,,,,,,,,,,,,,,,,,,,,,,,,,,,,,,,,,,,,,,,,,,,,,,,,,,,new,754.3750000000582,1,solos,new,new
107993,i7460474,drmtask,1,bhIADPTB1488276290017,218,3gprbqv3v3ka1pca,1,,,,,,,,,,,,,,,,,,,,,,,,,,,,,,,,,,,,,,,,,,,,,,,,,,,,,,,,new,865.6600000000326,1,barrier,new,new
107993,i7460474,drmtask,1,bhIADPTB1488276290017,219,3gprbqv3v3ka1pca,1,,,,,,,,,,,,,,,,,,,,,,,,,,,,,,,,,,,,,,,,,,,,,,,,,,,,,,,,old,756.0650000000023,1,milk,old,old
107993,i7460474,drmtask,1,bhIADPTB1488276290017,220,3gprbqv3v3ka1pca,1,,,,,,,,,,,,,,,,,,,,,,,,,,,,,,,,,,,,,,,,,,,,,,,,,,,,,,,,new,943.8250000000116,1,veteran,new,new
107993,i7460474,drmtask,1,bhIADPTB1488276290017,221,3gprbqv3v3ka1pca,1,,,,,,,,,,,,,,,,,,,,,,,,,,,,,,,,,,,,,,,,,,,,,,,,,,,,,,,,new,1197.929999999993,1,bread,lure,new
107993,i7460474,drmtask,1,bhIADPTB1488276290017,222,3gprbqv3v3ka1pca,1,,,,,,,,,,,,,,,,,,,,,,,,,,,,,,,,,,,,,,,,,,,,,,,,,,,,,,,,new,775.8250000000116,1,barred,new,new
107993,i7460474,drmtask,1,bhIADPTB1488276290017,223,3gprbqv3v3ka1pca,1,,,,,,,,,,,,,,,,,,,,,,,,,,,,,,,,,,,,,,,,,,,,,,,,,,,,,,,,new,685.3499999999767,1,jade,new,new
107993,i7460474,drmtask,1,bhIADPTB1488276290017,224,3gprbqv3v3ka1pca,1,,,,,,,,,,,,,,,,,,,,,,,,,,,,,,,,,,,,,,,,,,,,,,,,,,,,,,,,old,698.859999999986,1,crust,old,old
107993,i7460474,drmtask,1,bhIADPTB1488276290017,225,3gprbqv3v3ka1pca,1,,,,,,,,,,,,,,,,,,,,,,,,,,,,,,,,,,,,,,,,,,,,,,,,,,,,,,,,new,1221.6250000000582,1,accord,new,new
107993,i7460474,drmtask,1,bhIADPTB1488276290017,226,3gprbqv3v3ka1pca,1,,,,,,,,,,,,,,,,,,,,,,,,,,,,,,,,,,,,,,,,,,,,,,,,,,,,,,,,new,657.4749999999767,1,differs,new,new
107993,i7460474,drmtask,1,bhIADPTB1488276290017,227,3gprbqv3v3ka1pca,1,,,,,,,,,,,,,,,,,,,,,,,,,,,,,,,,,,,,,,,,,,,,,,,,,,,,,,,,old,730.4349999999977,1,rye,old,old
107993,i7460474,drmtask,1,bhIADPTB1488276290017,228,3gprbqv3v3ka1pca,1,,,,,,,,,,,,,,,,,,,,,,,,,,,,,,,,,,,,,,,,,,,,,,,,,,,,,,,,new,2075.2099999999627,0,butter,old,old
107993,i7460474,drmtask,1,bhIADPTB1488276290017,229,3gprbqv3v3ka1pca,1,,,,,,,,,,,,,,,,,,,,,,,,,,,,,,,,,,,,,,,,,,,,,,,,,,,,,,,,new,973.1650000000373,1,dubbed,new,new
107993,i7460474,drmtask,1,bhIADPTB1488276290017,230,3gprbqv3v3ka1pca,1,,,,,,,,,,,,,,,,,,,,,,,,,,,,,,,,,,,,,,,,,,,,,,,,,,,,,,,,new,640.835000000021,1,grandma,new,new
107993,i7460474,drmtask,1,bhIADPTB1488276290017,231,73xbsb35l4dhkh0p,1,,,,,,,,,,,,,,,,,,,,,,,,,,,,,,,,,,,,,,,,,,,,,,,,,,,,,,,,,,,,,,,2000.2000000000116,0,salad,Fruit,old
107993,i7460474,drmtask,1,bhIADPTB1488276290017,232,73xbsb35l4dhkh0p,1,,,,,,,,,,,,,,,,,,,,,,,,,,,,,,,,,,,,,,,,,,,,,,,,,,,,,,,,,,,,,,,2000.454999999958,0,juice,Fruit,old
107993,i7460474,drmtask,1,bhIADPTB1488276290017,233,73xbsb35l4dhkh0p,1,,,,,,,,,,,,,,,,,,,,,,,,,,,,,,,,,,,,,,,,,,,,,,,,,,,,,,,,,,,,,,,2000.304999999993,0,banana,Fruit,old
107993,i7460474,drmtask,1,bhIADPTB1488276290017,234,73xbsb35l4dhkh0p,1,,,,,,,,,,,,,,,,,,,,,,,,,,,,,,,,,,,,,,,,,,,,,,,,,,,,,,,,,,,,,,,2002.265000000014,0,bowl,Fruit,old
107993,i7460474,drmtask,1,bhIADPTB1488276290017,235,73xbsb35l4dhkh0p,1,,,,,,,,,,,,,,,,,,,,,,,,,,,,,,,,,,,,,,,,,,,,,,,,,,,,,,,,,,,,,,,2000.6500000000233,0,berry,Fruit,old
107993,i7460474,drmtask,1,bhIADPTB1488276290017,236,73xbsb35l4dhkh0p,1,,,,,,,,,,,,,,,,,,,,,,,,,,,,,,,,,,,,,,,,,,,,,,,,,,,,,,,,,,,,,,,2000.9949999999371,0,pear,Fruit,old
107993,i7460474,drmtask,1,bhIADPTB1488276290017,237,73xbsb35l4dhkh0p,1,,,,,,,,,,,,,,,,,,,,,,,,,,,,,,,,,,,,,,,,,,,,,,,,,,,,,,,,,,,,,,,2000.7699999999604,0,orange,Fruit,old
107993,i7460474,drmtask,1,bhIADPTB1488276290017,238,73xbsb35l4dhkh0p,1,,,,,,,,,,,,,,,,,,,,,,,,,,,,,,,,,,,,,,,,,,,,,,,,,,,,,,,,,,,,,,,2000.6750000000466,0,apple,Fruit,old
107993,i7460474,drmtask,1,bhIADPTB1488276290017,239,73xbsb35l4dhkh0p,1,,,,,,,,,,,,,,,,,,,,,,,,,,,,,,,,,,,,,,,,,,,,,,,,,,,,,,,,,,,,,,,2000.954999999958,0,basket,Fruit,old
107993,i7460474,drmtask,1,bhIADPTB1488276290017,240,73xbsb35l4dhkh0p,1,,,,,,,,,,,,,,,,,,,,,,,,,,,,,,,,,,,,,,,,,,,,,,,,,,,,,,,,,,,,,,,2000.8399999999674,0,cocktail,Fruit,old
107993,i7460474,drmtask,1,bhIADPTB1488276290017,241,73xbsb35l4dhkh0p,1,,,,,,,,,,,,,,,,,,,,,,,,,,,,,,,,,,,,,,,,,,,,,,,,,,,,,,,,,,,,,,,2000.344999999972,0,kiwi,Fruit,old
107993,i7460474,drmtask,1,bhIADPTB1488276290017,242,73xbsb35l4dhkh0p,1,,,,,,,,,,,,,,,,,,,,,,,,,,,,,,,,,,,,,,,,,,,,,,,,,,,,,,,,,,,,,,,2000.9500000000116,0,vegetable,Fruit,old
107993,i7460474,drmtask,1,bhIADPTB1488276290017,243,73xbsb35l4dhkh0p,1,,,,,,,,,,,,,,,,,,,,,,,,,,,,,,,,,,,,,,,,,,,,,,,,,,,,,,,,,,,,,,,2000.9550000000163,0,ripe,Fruit,old
107993,i7460474,drmtask,1,bhIADPTB1488276290017,244,73xbsb35l4dhkh0p,1,,,,,,,,,,,,,,,,,,,,,,,,,,,,,,,,,,,,,,,,,,,,,,,,,,,,,,,,,,,,,,,2001.0549999999348,0,cherry,Fruit,old
107993,i7460474,drmtask,1,bhIADPTB1488276290017,245,73xbsb35l4dhkh0p,1,,,,,,,,,,,,,,,,,,,,,,,,,,,,,,,,,,,,,,,,,,,,,,,,,,,,,,,,,,,,,,,2000.304999999993,0,citrus,Fruit,old
107993,i7460474,drmtask,1,bhIADPTB1488276290017,246,1zrcws70uqy0uf0t,1,,,,,,,,,,,,,,,,,,,,,,,,,,,,,,,,,,,,,,,,,,,,,,,,,,,,,,,,,,,,,,,,,,,,new,1349.4249999999884,1,ours,new,new
107993,i7460474,drmtask,1,bhIADPTB1488276290017,247,1zrcws70uqy0uf0t,1,,,,,,,,,,,,,,,,,,,,,,,,,,,,,,,,,,,,,,,,,,,,,,,,,,,,,,,,,,,,,,,,,,,,new,849.4500000000116,1,devote,new,new
107993,i7460474,drmtask,1,bhIADPTB1488276290017,248,1zrcws70uqy0uf0t,1,,,,,,,,,,,,,,,,,,,,,,,,,,,,,,,,,,,,,,,,,,,,,,,,,,,,,,,,,,,,,,,,,,,,new,628.3899999999558,1,honored,new,new
107993,i7460474,drmtask,1,bhIADPTB1488276290017,249,1zrcws70uqy0uf0t,1,,,,,,,,,,,,,,,,,,,,,,,,,,,,,,,,,,,,,,,,,,,,,,,,,,,,,,,,,,,,,,,,,,,,new,634.4049999999697,1,spewing,new,new
107993,i7460474,drmtask,1,bhIADPTB1488276290017,250,1zrcws70uqy0uf0t,1,,,,,,,,,,,,,,,,,,,,,,,,,,,,,,,,,,,,,,,,,,,,,,,,,,,,,,,,,,,,,,,,,,,,new,668.2449999999953,1,daisy,new,new
107993,i7460474,drmtask,1,bhIADPTB1488276290017,251,1zrcws70uqy0uf0t,1,,,,,,,,,,,,,,,,,,,,,,,,,,,,,,,,,,,,,,,,,,,,,,,,,,,,,,,,,,,,,,,,,,,,old,732.2550000000047,1,berry,old,old
107993,i7460474,drmtask,1,bhIADPTB1488276290017,252,1zrcws70uqy0uf0t,1,,,,,,,,,,,,,,,,,,,,,,,,,,,,,,,,,,,,,,,,,,,,,,,,,,,,,,,,,,,,,,,,,,,,old,677.6199999999371,1,vegetable,old,old
107993,i7460474,drmtask,1,bhIADPTB1488276290017,253,1zrcws70uqy0uf0t,1,,,,,,,,,,,,,,,,,,,,,,,,,,,,,,,,,,,,,,,,,,,,,,,,,,,,,,,,,,,,,,,,,,,,new,871.2199999999721,1,gill,new,new
107993,i7460474,drmtask,1,bhIADPTB1488276290017,254,1zrcws70uqy0uf0t,1,,,,,,,,,,,,,,,,,,,,,,,,,,,,,,,,,,,,,,,,,,,,,,,,,,,,,,,,,,,,,,,,,,,,old,674.9749999999767,1,kiwi,old,old
107993,i7460474,drmtask,1,bhIADPTB1488276290017,255,1zrcws70uqy0uf0t,1,,,,,,,,,,,,,,,,,,,,,,,,,,,,,,,,,,,,,,,,,,,,,,,,,,,,,,,,,,,,,,,,,,,,new,667.1349999999511,1,fined,new,new
107993,i7460474,drmtask,1,bhIADPTB1488276290017,256,1zrcws70uqy0uf0t,1,,,,,,,,,,,,,,,,,,,,,,,,,,,,,,,,,,,,,,,,,,,,,,,,,,,,,,,,,,,,,,,,,,,,old,802.8949999999604,1,citrus,old,old
107993,i7460474,drmtask,1,bhIADPTB1488276290017,257,1zrcws70uqy0uf0t,1,,,,,,,,,,,,,,,,,,,,,,,,,,,,,,,,,,,,,,,,,,,,,,,,,,,,,,,,,,,,,,,,,,,,old,715.7800000000279,0,banana,new,new
107993,i7460474,drmtask,1,bhIADPTB1488276290017,258,1zrcws70uqy0uf0t,1,,,,,,,,,,,,,,,,,,,,,,,,,,,,,,,,,,,,,,,,,,,,,,,,,,,,,,,,,,,,,,,,,,,,new,735.6399999999558,1,jaws,new,new
107993,i7460474,drmtask,1,bhIADPTB1488276290017,259,1zrcws70uqy0uf0t,1,,,,,,,,,,,,,,,,,,,,,,,,,,,,,,,,,,,,,,,,,,,,,,,,,,,,,,,,,,,,,,,,,,,,old,611.9400000000023,1,pear,old,old
107993,i7460474,drmtask,1,bhIADPTB1488276290017,260,1zrcws70uqy0uf0t,1,,,,,,,,,,,,,,,,,,,,,,,,,,,,,,,,,,,,,,,,,,,,,,,,,,,,,,,,,,,,,,,,,,,,old,706.8649999999907,1,cherry,old,old
107993,i7460474,drmtask,1,bhIADPTB1488276290017,261,1zrcws70uqy0uf0t,1,,,,,,,,,,,,,,,,,,,,,,,,,,,,,,,,,,,,,,,,,,,,,,,,,,,,,,,,,,,,,,,,,,,,new,1993.149999999965,1,fruit,lure,new
107993,i7460474,drmtask,1,bhIADPTB1488276290017,262,1zrcws70uqy0uf0t,1,,,,,,,,,,,,,,,,,,,,,,,,,,,,,,,,,,,,,,,,,,,,,,,,,,,,,,,,,,,,,,,,,,,,old,633.804999999993,1,basket,old,old
107993,i7460474,drmtask,1,bhIADPTB1488276290017,263,1zrcws70uqy0uf0t,1,,,,,,,,,,,,,,,,,,,,,,,,,,,,,,,,,,,,,,,,,,,,,,,,,,,,,,,,,,,,,,,,,,,,old,681.8549999999814,1,banana,old,old
107993,i7460474,drmtask,1,bhIADPTB1488276290017,264,1zrcws70uqy0uf0t,1,,,,,,,,,,,,,,,,,,,,,,,,,,,,,,,,,,,,,,,,,,,,,,,,,,,,,,,,,,,,,,,,,,,,new,635.164999999979,1,guided,new,new
107993,i7460474,drmtask,1,bhIADPTB1488276290017,265,1zrcws70uqy0uf0t,1,,,,,,,,,,,,,,,,,,,,,,,,,,,,,,,,,,,,,,,,,,,,,,,,,,,,,,,,,,,,,,,,,,,,old,771.1599999999744,1,cocktail,old,old
107993,i7460474,drmtask,1,bhIADPTB1488276290017,266,1zrcws70uqy0uf0t,1,,,,,,,,,,,,,,,,,,,,,,,,,,,,,,,,,,,,,,,,,,,,,,,,,,,,,,,,,,,,,,,,,,,,old,1010.5499999999884,1,ripe,old,old
107993,i7460474,drmtask,1,bhIADPTB1488276290017,267,1zrcws70uqy0uf0t,1,,,,,,,,,,,,,,,,,,,,,,,,,,,,,,,,,,,,,,,,,,,,,,,,,,,,,,,,,,,,,,,,,,,,old,654.3399999999674,1,bowl,old,old
107993,i7460474,drmtask,1,bhIADPTB1488276290017,268,1zrcws70uqy0uf0t,1,,,,,,,,,,,,,,,,,,,,,,,,,,,,,,,,,,,,,,,,,,,,,,,,,,,,,,,,,,,,,,,,,,,,old,1075.695000000007,1,juice,old,old
107993,i7460474,drmtask,1,bhIADPTB1488276290017,269,1zrcws70uqy0uf0t,1,,,,,,,,,,,,,,,,,,,,,,,,,,,,,,,,,,,,,,,,,,,,,,,,,,,,,,,,,,,,,,,,,,,,old,774.1550000000279,1,orange,old,old
107993,i7460474,drmtask,1,bhIADPTB1488276290017,270,1zrcws70uqy0uf0t,1,,,,,,,,,,,,,,,,,,,,,,,,,,,,,,,,,,,,,,,,,,,,,,,,,,,,,,,,,,,,,,,,,,,,old,674.9300000000512,1,apple,old,old
107993,i7460474,drmtask,1,bhIADPTB1488276290017,271,1zrcws70uqy0uf0t,1,,,,,,,,,,,,,,,,,,,,,,,,,,,,,,,,,,,,,,,,,,,,,,,,,,,,,,,,,,,,,,,,,,,,new,677.9500000000116,1,raiders,new,new
107993,i7460474,drmtask,1,bhIADPTB1488276290017,272,1zrcws70uqy0uf0t,1,,,,,,,,,,,,,,,,,,,,,,,,,,,,,,,,,,,,,,,,,,,,,,,,,,,,,,,,,,,,,,,,,,,,old,1572.0349999999744,1,salad,old,old
107993,i7460474,drmtask,1,bhIADPTB1488276290017,273,1zrcws70uqy0uf0t,1,,,,,,,,,,,,,,,,,,,,,,,,,,,,,,,,,,,,,,,,,,,,,,,,,,,,,,,,,,,,,,,,,,,,new,776.414999999979,1,crease,new,new
107993,i7460474,drmtask,1,bhIADPTB1488276290017,274,1zrcws70uqy0uf0t,1,,,,,,,,,,,,,,,,,,,,,,,,,,,,,,,,,,,,,,,,,,,,,,,,,,,,,,,,,,,,,,,,,,,,new,793.4249999999884,1,packed,new,new
107993,i7460474,drmtask,1,bhIADPTB1488276290017,275,1zrcws70uqy0uf0t,1,,,,,,,,,,,,,,,,,,,,,,,,,,,,,,,,,,,,,,,,,,,,,,,,,,,,,,,,,,,,,,,,,,,,new,667.3499999999767,1,lacking,new,new
107993,i7460474,drmtask,1,bhIADPTB1488276290017,276,1zrcws70uqy0uf0t,1,,,,,,,,,,,,,,,,,,,,,,,,,,,,,,,,,,,,,,,,,,,,,,,,,,,,,,,,,,,,,,,,,,,,new,690.3250000000698,1,faked,new,new
107993,i7460474,drmtask,1,bhIADPTB1488276290017,277,2hb66z96a6h89cbd,1,,,,,,,,,,,,,,,,,,,,,,,,,,,,,,,,,,,,,,,,,,,,,,,,,,,,,,,,,,,,,,,,,,,,,,,,,,,2000.780000000028,0,walk,Foot,old
107993,i7460474,drmtask,1,bhIADPTB1488276290017,278,2hb66z96a6h89cbd,1,,,,,,,,,,,,,,,,,,,,,,,,,,,,,,,,,,,,,,,,,,,,,,,,,,,,,,,,,,,,,,,,,,,,,,,,,,,2000.3750000000582,0,hand,Foot,old
107993,i7460474,drmtask,1,bhIADPTB1488276290017,279,2hb66z96a6h89cbd,1,,,,,,,,,,,,,,,,,,,,,,,,,,,,,,,,,,,,,,,,,,,,,,,,,,,,,,,,,,,,,,,,,,,,,,,,,,,2000.3850000000093,0,arm,Foot,old
107993,i7460474,drmtask,1,bhIADPTB1488276290017,280,2hb66z96a6h89cbd,1,,,,,,,,,,,,,,,,,,,,,,,,,,,,,,,,,,,,,,,,,,,,,,,,,,,,,,,,,,,,,,,,,,,,,,,,,,,2000.4700000000303,0,inch,Foot,old
107993,i7460474,drmtask,1,bhIADPTB1488276290017,281,2hb66z96a6h89cbd,1,,,,,,,,,,,,,,,,,,,,,,,,,,,,,,,,,,,,,,,,,,,,,,,,,,,,,,,,,,,,,,,,,,,,,,,,,,,2000.469999999972,0,sandals,Foot,old
107993,i7460474,drmtask,1,bhIADPTB1488276290017,282,2hb66z96a6h89cbd,1,,,,,,,,,,,,,,,,,,,,,,,,,,,,,,,,,,,,,,,,,,,,,,,,,,,,,,,,,,,,,,,,,,,,,,,,,,,2000.4599999999627,0,shoe,Foot,old
107993,i7460474,drmtask,1,bhIADPTB1488276290017,283,2hb66z96a6h89cbd,1,,,,,,,,,,,,,,,,,,,,,,,,,,,,,,,,,,,,,,,,,,,,,,,,,,,,,,,,,,,,,,,,,,,,,,,,,,,2001.054999999993,0,mouth,Foot,old
107993,i7460474,drmtask,1,bhIADPTB1488276290017,284,2hb66z96a6h89cbd,1,,,,,,,,,,,,,,,,,,,,,,,,,,,,,,,,,,,,,,,,,,,,,,,,,,,,,,,,,,,,,,,,,,,,,,,,,,,2001.0200000000186,0,ball,Foot,old
107993,i7460474,drmtask,1,bhIADPTB1488276290017,285,2hb66z96a6h89cbd,1,,,,,,,,,,,,,,,,,,,,,,,,,,,,,,,,,,,,,,,,,,,,,,,,,,,,,,,,,,,,,,,,,,,,,,,,,,,2000.5350000000326,0,kick,Foot,old
107993,i7460474,drmtask,1,bhIADPTB1488276290017,286,2hb66z96a6h89cbd,1,,,,,,,,,,,,,,,,,,,,,,,,,,,,,,,,,,,,,,,,,,,,,,,,,,,,,,,,,,,,,,,,,,,,,,,,,,,2000.3099999999977,0,toe,Foot,old
107993,i7460474,drmtask,1,bhIADPTB1488276290017,287,2hb66z96a6h89cbd,1,,,,,,,,,,,,,,,,,,,,,,,,,,,,,,,,,,,,,,,,,,,,,,,,,,,,,,,,,,,,,,,,,,,,,,,,,,,2000.5650000000605,0,yard,Foot,old
107993,i7460474,drmtask,1,bhIADPTB1488276290017,288,2hb66z96a6h89cbd,1,,,,,,,,,,,,,,,,,,,,,,,,,,,,,,,,,,,,,,,,,,,,,,,,,,,,,,,,,,,,,,,,,,,,,,,,,,,2000.3800000000047,0,knee,Foot,old
107993,i7460474,drmtask,1,bhIADPTB1488276290017,289,2hb66z96a6h89cbd,1,,,,,,,,,,,,,,,,,,,,,,,,,,,,,,,,,,,,,,,,,,,,,,,,,,,,,,,,,,,,,,,,,,,,,,,,,,,2000.5100000000093,0,boot,Foot,old
107993,i7460474,drmtask,1,bhIADPTB1488276290017,290,2hb66z96a6h89cbd,1,,,,,,,,,,,,,,,,,,,,,,,,,,,,,,,,,,,,,,,,,,,,,,,,,,,,,,,,,,,,,,,,,,,,,,,,,,,2000.9550000000163,0,ankle,Foot,old
107993,i7460474,drmtask,1,bhIADPTB1488276290017,291,2hb66z96a6h89cbd,1,,,,,,,,,,,,,,,,,,,,,,,,,,,,,,,,,,,,,,,,,,,,,,,,,,,,,,,,,,,,,,,,,,,,,,,,,,,2000.3850000000093,0,sock,Foot,old
107993,i7460474,drmtask,1,bhIADPTB1488276290017,292,0msgzuy5n8vp1u2r,1,,,,,,,,,,,,,,,,,,,,,,,,,,,,,,,,,,,,,,,,,,,,,,,,,,,,,,,,,,,,,,,,,,,,,,,,,,,,,,,,old,1659.8499999999767,1,sock,old,old
107993,i7460474,drmtask,1,bhIADPTB1488276290017,293,0msgzuy5n8vp1u2r,1,,,,,,,,,,,,,,,,,,,,,,,,,,,,,,,,,,,,,,,,,,,,,,,,,,,,,,,,,,,,,,,,,,,,,,,,,,,,,,,,old,768.6700000000419,1,mouth,old,old
107993,i7460474,drmtask,1,bhIADPTB1488276290017,294,0msgzuy5n8vp1u2r,1,,,,,,,,,,,,,,,,,,,,,,,,,,,,,,,,,,,,,,,,,,,,,,,,,,,,,,,,,,,,,,,,,,,,,,,,,,,,,,,,new,765.1450000000186,1,garage,new,new
107993,i7460474,drmtask,1,bhIADPTB1488276290017,295,0msgzuy5n8vp1u2r,1,,,,,,,,,,,,,,,,,,,,,,,,,,,,,,,,,,,,,,,,,,,,,,,,,,,,,,,,,,,,,,,,,,,,,,,,,,,,,,,,old,706.8950000000186,0,foot,lure,new
107993,i7460474,drmtask,1,bhIADPTB1488276290017,296,0msgzuy5n8vp1u2r,1,,,,,,,,,,,,,,,,,,,,,,,,,,,,,,,,,,,,,,,,,,,,,,,,,,,,,,,,,,,,,,,,,,,,,,,,,,,,,,,,new,736.6850000000559,1,bulldog,new,new
107993,i7460474,drmtask,1,bhIADPTB1488276290017,297,0msgzuy5n8vp1u2r,1,,,,,,,,,,,,,,,,,,,,,,,,,,,,,,,,,,,,,,,,,,,,,,,,,,,,,,,,,,,,,,,,,,,,,,,,,,,,,,,,new,601.945000000007,1,bust,new,new
107993,i7460474,drmtask,1,bhIADPTB1488276290017,298,0msgzuy5n8vp1u2r,1,,,,,,,,,,,,,,,,,,,,,,,,,,,,,,,,,,,,,,,,,,,,,,,,,,,,,,,,,,,,,,,,,,,,,,,,,,,,,,,,new,1236.8649999999907,0,toe,old,old
107993,i7460474,drmtask,1,bhIADPTB1488276290017,299,0msgzuy5n8vp1u2r,1,,,,,,,,,,,,,,,,,,,,,,,,,,,,,,,,,,,,,,,,,,,,,,,,,,,,,,,,,,,,,,,,,,,,,,,,,,,,,,,,old,655.9200000000419,1,hand,old,old
107993,i7460474,drmtask,1,bhIADPTB1488276290017,300,0msgzuy5n8vp1u2r,1,,,,,,,,,,,,,,,,,,,,,,,,,,,,,,,,,,,,,,,,,,,,,,,,,,,,,,,,,,,,,,,,,,,,,,,,,,,,,,,,old,817.9949999999953,1,boot,old,old
107993,i7460474,drmtask,1,bhIADPTB1488276290017,301,0msgzuy5n8vp1u2r,1,,,,,,,,,,,,,,,,,,,,,,,,,,,,,,,,,,,,,,,,,,,,,,,,,,,,,,,,,,,,,,,,,,,,,,,,,,,,,,,,new,534.765000000014,1,fare,new,new
107993,i7460474,drmtask,1,bhIADPTB1488276290017,302,0msgzuy5n8vp1u2r,1,,,,,,,,,,,,,,,,,,,,,,,,,,,,,,,,,,,,,,,,,,,,,,,,,,,,,,,,,,,,,,,,,,,,,,,,,,,,,,,,new,553.6149999999907,1,spelled,new,new
107993,i7460474,drmtask,1,bhIADPTB1488276290017,303,0msgzuy5n8vp1u2r,1,,,,,,,,,,,,,,,,,,,,,,,,,,,,,,,,,,,,,,,,,,,,,,,,,,,,,,,,,,,,,,,,,,,,,,,,,,,,,,,,old,647.3400000000256,1,inch,old,old
107993,i7460474,drmtask,1,bhIADPTB1488276290017,304,0msgzuy5n8vp1u2r,1,,,,,,,,,,,,,,,,,,,,,,,,,,,,,,,,,,,,,,,,,,,,,,,,,,,,,,,,,,,,,,,,,,,,,,,,,,,,,,,,new,652.2199999999721,1,clarity,new,new
107993,i7460474,drmtask,1,bhIADPTB1488276290017,305,0msgzuy5n8vp1u2r,1,,,,,,,,,,,,,,,,,,,,,,,,,,,,,,,,,,,,,,,,,,,,,,,,,,,,,,,,,,,,,,,,,,,,,,,,,,,,,,,,old,984.7849999999744,1,shoe,old,old
107993,i7460474,drmtask,1,bhIADPTB1488276290017,306,0msgzuy5n8vp1u2r,1,,,,,,,,,,,,,,,,,,,,,,,,,,,,,,,,,,,,,,,,,,,,,,,,,,,,,,,,,,,,,,,,,,,,,,,,,,,,,,,,new,555.9599999999627,1,majesty,new,new
107993,i7460474,drmtask,1,bhIADPTB1488276290017,307,0msgzuy5n8vp1u2r,1,,,,,,,,,,,,,,,,,,,,,,,,,,,,,,,,,,,,,,,,,,,,,,,,,,,,,,,,,,,,,,,,,,,,,,,,,,,,,,,,new,589.710000000021,1,skates,new,new
107993,i7460474,drmtask,1,bhIADPTB1488276290017,308,0msgzuy5n8vp1u2r,1,,,,,,,,,,,,,,,,,,,,,,,,,,,,,,,,,,,,,,,,,,,,,,,,,,,,,,,,,,,,,,,,,,,,,,,,,,,,,,,,new,570.8549999999814,1,shaft,new,new
107993,i7460474,drmtask,1,bhIADPTB1488276290017,309,0msgzuy5n8vp1u2r,1,,,,,,,,,,,,,,,,,,,,,,,,,,,,,,,,,,,,,,,,,,,,,,,,,,,,,,,,,,,,,,,,,,,,,,,,,,,,,,,,new,528.3099999999977,1,riddle,new,new
107993,i7460474,drmtask,1,bhIADPTB1488276290017,310,0msgzuy5n8vp1u2r,1,,,,,,,,,,,,,,,,,,,,,,,,,,,,,,,,,,,,,,,,,,,,,,,,,,,,,,,,,,,,,,,,,,,,,,,,,,,,,,,,new,684.515000000014,1,cruises,new,new
107993,i7460474,drmtask,1,bhIADPTB1488276290017,311,0msgzuy5n8vp1u2r,1,,,,,,,,,,,,,,,,,,,,,,,,,,,,,,,,,,,,,,,,,,,,,,,,,,,,,,,,,,,,,,,,,,,,,,,,,,,,,,,,new,543.109999999986,1,sunken,new,new
107993,i7460474,drmtask,1,bhIADPTB1488276290017,312,0msgzuy5n8vp1u2r,1,,,,,,,,,,,,,,,,,,,,,,,,,,,,,,,,,,,,,,,,,,,,,,,,,,,,,,,,,,,,,,,,,,,,,,,,,,,,,,,,old,670.3549999999814,1,arm,old,old
107993,i7460474,drmtask,1,bhIADPTB1488276290017,313,0msgzuy5n8vp1u2r,1,,,,,,,,,,,,,,,,,,,,,,,,,,,,,,,,,,,,,,,,,,,,,,,,,,,,,,,,,,,,,,,,,,,,,,,,,,,,,,,,old,764.6849999999977,1,ankle,old,old
107993,i7460474,drmtask,1,bhIADPTB1488276290017,314,0msgzuy5n8vp1u2r,1,,,,,,,,,,,,,,,,,,,,,,,,,,,,,,,,,,,,,,,,,,,,,,,,,,,,,,,,,,,,,,,,,,,,,,,,,,,,,,,,old,738.929999999993,1,walk,old,old
107993,i7460474,drmtask,1,bhIADPTB1488276290017,315,0msgzuy5n8vp1u2r,1,,,,,,,,,,,,,,,,,,,,,,,,,,,,,,,,,,,,,,,,,,,,,,,,,,,,,,,,,,,,,,,,,,,,,,,,,,,,,,,,new,1049.0599999999977,0,kick,old,old
107993,i7460474,drmtask,1,bhIADPTB1488276290017,316,0msgzuy5n8vp1u2r,1,,,,,,,,,,,,,,,,,,,,,,,,,,,,,,,,,,,,,,,,,,,,,,,,,,,,,,,,,,,,,,,,,,,,,,,,,,,,,,,,old,880.820000000007,1,yard,old,old
107993,i7460474,drmtask,1,bhIADPTB1488276290017,317,0msgzuy5n8vp1u2r,1,,,,,,,,,,,,,,,,,,,,,,,,,,,,,,,,,,,,,,,,,,,,,,,,,,,,,,,,,,,,,,,,,,,,,,,,,,,,,,,,new,1191.5500000000466,1,volcano,new,new
107993,i7460474,drmtask,1,bhIADPTB1488276290017,318,0msgzuy5n8vp1u2r,1,,,,,,,,,,,,,,,,,,,,,,,,,,,,,,,,,,,,,,,,,,,,,,,,,,,,,,,,,,,,,,,,,,,,,,,,,,,,,,,,new,591.070000000007,0,ball,old,old
107993,i7460474,drmtask,1,bhIADPTB1488276290017,319,0msgzuy5n8vp1u2r,1,,,,,,,,,,,,,,,,,,,,,,,,,,,,,,,,,,,,,,,,,,,,,,,,,,,,,,,,,,,,,,,,,,,,,,,,,,,,,,,,old,722.484999999986,1,sandals,old,old
107993,i7460474,drmtask,1,bhIADPTB1488276290017,320,0msgzuy5n8vp1u2r,1,,,,,,,,,,,,,,,,,,,,,,,,,,,,,,,,,,,,,,,,,,,,,,,,,,,,,,,,,,,,,,,,,,,,,,,,,,,,,,,,new,1648.1450000000186,1,winds,new,new
107993,i7460474,drmtask,1,bhIADPTB1488276290017,321,0msgzuy5n8vp1u2r,1,,,,,,,,,,,,,,,,,,,,,,,,,,,,,,,,,,,,,,,,,,,,,,,,,,,,,,,,,,,,,,,,,,,,,,,,,,,,,,,,old,802.0449999999837,1,knee,old,old
107993,i7460474,drmtask,1,bhIADPTB1488276290017,322,0msgzuy5n8vp1u2r,1,,,,,,,,,,,,,,,,,,,,,,,,,,,,,,,,,,,,,,,,,,,,,,,,,,,,,,,,,,,,,,,,,,,,,,,,,,,,,,,,new,706.3100000000559,1,cracks,new,new
107993,i7460474,drmtask,1,bhIADPTB1488276290017,323,6nc2wsigm8lx0c1h,1,,,,,,,,,,,,,,,,,,,,,,,,,,,,,,,,,,,,,,,,,,,,,,,,,,,,,,,,,,,,,,,,,,,,,,,,,,,,,,,,,,,,,,,2000.2550000000047,0,lawyer,Doctor,old
107993,i7460474,drmtask,1,bhIADPTB1488276290017,324,6nc2wsigm8lx0c1h,1,,,,,,,,,,,,,,,,,,,,,,,,,,,,,,,,,,,,,,,,,,,,,,,,,,,,,,,,,,,,,,,,,,,,,,,,,,,,,,,,,,,,,,,2000.4000000000233,0,stethoscope,Doctor,old
107993,i7460474,drmtask,1,bhIADPTB1488276290017,325,6nc2wsigm8lx0c1h,1,,,,,,,,,,,,,,,,,,,,,,,,,,,,,,,,,,,,,,,,,,,,,,,,,,,,,,,,,,,,,,,,,,,,,,,,,,,,,,,,,,,,,,,2000.5449999999837,0,physician,Doctor,old
107993,i7460474,drmtask,1,bhIADPTB1488276290017,326,6nc2wsigm8lx0c1h,1,,,,,,,,,,,,,,,,,,,,,,,,,,,,,,,,,,,,,,,,,,,,,,,,,,,,,,,,,,,,,,,,,,,,,,,,,,,,,,,,,,,,,,,2001.125,0,ill,Doctor,old
107993,i7460474,drmtask,1,bhIADPTB1488276290017,327,6nc2wsigm8lx0c1h,1,,,,,,,,,,,,,,,,,,,,,,,,,,,,,,,,,,,,,,,,,,,,,,,,,,,,,,,,,,,,,,,,,,,,,,,,,,,,,,,,,,,,,,,2000.4550000000163,0,health,Doctor,old
107993,i7460474,drmtask,1,bhIADPTB1488276290017,328,6nc2wsigm8lx0c1h,1,,,,,,,,,,,,,,,,,,,,,,,,,,,,,,,,,,,,,,,,,,,,,,,,,,,,,,,,,,,,,,,,,,,,,,,,,,,,,,,,,,,,,,,2000.5800000000163,0,nurse,Doctor,old
107993,i7460474,drmtask,1,bhIADPTB1488276290017,329,6nc2wsigm8lx0c1h,1,,,,,,,,,,,,,,,,,,,,,,,,,,,,,,,,,,,,,,,,,,,,,,,,,,,,,,,,,,,,,,,,,,,,,,,,,,,,,,,,,,,,,,,2001.024999999965,0,office,Doctor,old
107993,i7460474,drmtask,1,bhIADPTB1488276290017,330,6nc2wsigm8lx0c1h,1,,,,,,,,,,,,,,,,,,,,,,,,,,,,,,,,,,,,,,,,,,,,,,,,,,,,,,,,,,,,,,,,,,,,,,,,,,,,,,,,,,,,,,,2000.3750000000582,0,hospital,Doctor,old
107993,i7460474,drmtask,1,bhIADPTB1488276290017,331,6nc2wsigm8lx0c1h,1,,,,,,,,,,,,,,,,,,,,,,,,,,,,,,,,,,,,,,,,,,,,,,,,,,,,,,,,,,,,,,,,,,,,,,,,,,,,,,,,,,,,,,,2000.6449999999604,0,sick,Doctor,old
107993,i7460474,drmtask,1,bhIADPTB1488276290017,332,6nc2wsigm8lx0c1h,1,,,,,,,,,,,,,,,,,,,,,,,,,,,,,,,,,,,,,,,,,,,,,,,,,,,,,,,,,,,,,,,,,,,,,,,,,,,,,,,,,,,,,,,2001.0349999999744,0,cure,Doctor,old
107993,i7460474,drmtask,1,bhIADPTB1488276290017,333,6nc2wsigm8lx0c1h,1,,,,,,,,,,,,,,,,,,,,,,,,,,,,,,,,,,,,,,,,,,,,,,,,,,,,,,,,,,,,,,,,,,,,,,,,,,,,,,,,,,,,,,,2000.429999999993,0,patient,Doctor,old
107993,i7460474,drmtask,1,bhIADPTB1488276290017,334,6nc2wsigm8lx0c1h,1,,,,,,,,,,,,,,,,,,,,,,,,,,,,,,,,,,,,,,,,,,,,,,,,,,,,,,,,,,,,,,,,,,,,,,,,,,,,,,,,,,,,,,,2000.3250000000116,0,dentist,Doctor,old
107993,i7460474,drmtask,1,bhIADPTB1488276290017,335,6nc2wsigm8lx0c1h,1,,,,,,,,,,,,,,,,,,,,,,,,,,,,,,,,,,,,,,,,,,,,,,,,,,,,,,,,,,,,,,,,,,,,,,,,,,,,,,,,,,,,,,,2000.5050000000047,0,surgeon,Doctor,old
107993,i7460474,drmtask,1,bhIADPTB1488276290017,336,6nc2wsigm8lx0c1h,1,,,,,,,,,,,,,,,,,,,,,,,,,,,,,,,,,,,,,,,,,,,,,,,,,,,,,,,,,,,,,,,,,,,,,,,,,,,,,,,,,,,,,,,2000.3100000000559,0,clinic,Doctor,old
107993,i7460474,drmtask,1,bhIADPTB1488276290017,337,6nc2wsigm8lx0c1h,1,,,,,,,,,,,,,,,,,,,,,,,,,,,,,,,,,,,,,,,,,,,,,,,,,,,,,,,,,,,,,,,,,,,,,,,,,,,,,,,,,,,,,,,2000.3099999999977,0,medicine,Doctor,old
107993,i7460474,drmtask,1,bhIADPTB1488276290017,338,qb2cc56h97zynih9,1,,,,,,,,,,,,,,,,,,,,,,,,,,,,,,,,,,,,,,,,,,,,,,,,,,,,,,,,,,,,,,,,,,,,,,,,,,,,,,,,,,,,,,,,,,,,new,2832.2150000000256,1,heating,new,new
107993,i7460474,drmtask,1,bhIADPTB1488276290017,339,qb2cc56h97zynih9,1,,,,,,,,,,,,,,,,,,,,,,,,,,,,,,,,,,,,,,,,,,,,,,,,,,,,,,,,,,,,,,,,,,,,,,,,,,,,,,,,,,,,,,,,,,,,new,825.1599999999744,1,gaze,new,new
107993,i7460474,drmtask,1,bhIADPTB1488276290017,340,qb2cc56h97zynih9,1,,,,,,,,,,,,,,,,,,,,,,,,,,,,,,,,,,,,,,,,,,,,,,,,,,,,,,,,,,,,,,,,,,,,,,,,,,,,,,,,,,,,,,,,,,,,new,636.7449999999371,1,analogy,new,new
107993,i7460474,drmtask,1,bhIADPTB1488276290017,341,qb2cc56h97zynih9,1,,,,,,,,,,,,,,,,,,,,,,,,,,,,,,,,,,,,,,,,,,,,,,,,,,,,,,,,,,,,,,,,,,,,,,,,,,,,,,,,,,,,,,,,,,,,new,574.1500000000233,1,rewrite,new,new
107993,i7460474,drmtask,1,bhIADPTB1488276290017,342,qb2cc56h97zynih9,1,,,,,,,,,,,,,,,,,,,,,,,,,,,,,,,,,,,,,,,,,,,,,,,,,,,,,,,,,,,,,,,,,,,,,,,,,,,,,,,,,,,,,,,,,,,,old,753.1450000000186,1,stethoscope,old,old
107993,i7460474,drmtask,1,bhIADPTB1488276290017,343,qb2cc56h97zynih9,1,,,,,,,,,,,,,,,,,,,,,,,,,,,,,,,,,,,,,,,,,,,,,,,,,,,,,,,,,,,,,,,,,,,,,,,,,,,,,,,,,,,,,,,,,,,,new,771.5,1,palm,new,new
107993,i7460474,drmtask,1,bhIADPTB1488276290017,344,qb2cc56h97zynih9,1,,,,,,,,,,,,,,,,,,,,,,,,,,,,,,,,,,,,,,,,,,,,,,,,,,,,,,,,,,,,,,,,,,,,,,,,,,,,,,,,,,,,,,,,,,,,new,1248.710000000021,1,anatomy,new,new
107993,i7460474,drmtask,1,bhIADPTB1488276290017,345,qb2cc56h97zynih9,1,,,,,,,,,,,,,,,,,,,,,,,,,,,,,,,,,,,,,,,,,,,,,,,,,,,,,,,,,,,,,,,,,,,,,,,,,,,,,,,,,,,,,,,,,,,,new,1517.344999999972,0,patient,old,old
107993,i7460474,drmtask,1,bhIADPTB1488276290017,346,qb2cc56h97zynih9,1,,,,,,,,,,,,,,,,,,,,,,,,,,,,,,,,,,,,,,,,,,,,,,,,,,,,,,,,,,,,,,,,,,,,,,,,,,,,,,,,,,,,,,,,,,,,new,862.7299999999814,1,doctor,lure,new
107993,i7460474,drmtask,1,bhIADPTB1488276290017,347,qb2cc56h97zynih9,1,,,,,,,,,,,,,,,,,,,,,,,,,,,,,,,,,,,,,,,,,,,,,,,,,,,,,,,,,,,,,,,,,,,,,,,,,,,,,,,,,,,,,,,,,,,,old,621.7949999999837,1,physician,old,old
107993,i7460474,drmtask,1,bhIADPTB1488276290017,348,qb2cc56h97zynih9,1,,,,,,,,,,,,,,,,,,,,,,,,,,,,,,,,,,,,,,,,,,,,,,,,,,,,,,,,,,,,,,,,,,,,,,,,,,,,,,,,,,,,,,,,,,,,new,1454.5449999999837,1,parry,new,new
107993,i7460474,drmtask,1,bhIADPTB1488276290017,349,qb2cc56h97zynih9,1,,,,,,,,,,,,,,,,,,,,,,,,,,,,,,,,,,,,,,,,,,,,,,,,,,,,,,,,,,,,,,,,,,,,,,,,,,,,,,,,,,,,,,,,,,,,new,1248.6849999999977,1,ripped,new,new
107993,i7460474,drmtask,1,bhIADPTB1488276290017,350,qb2cc56h97zynih9,1,,,,,,,,,,,,,,,,,,,,,,,,,,,,,,,,,,,,,,,,,,,,,,,,,,,,,,,,,,,,,,,,,,,,,,,,,,,,,,,,,,,,,,,,,,,,new,703.5,1,tang,new,new
107993,i7460474,drmtask,1,bhIADPTB1488276290017,351,qb2cc56h97zynih9,1,,,,,,,,,,,,,,,,,,,,,,,,,,,,,,,,,,,,,,,,,,,,,,,,,,,,,,,,,,,,,,,,,,,,,,,,,,,,,,,,,,,,,,,,,,,,new,999.5,0,lawyer,old,old
107993,i7460474,drmtask,1,bhIADPTB1488276290017,352,qb2cc56h97zynih9,1,,,,,,,,,,,,,,,,,,,,,,,,,,,,,,,,,,,,,,,,,,,,,,,,,,,,,,,,,,,,,,,,,,,,,,,,,,,,,,,,,,,,,,,,,,,,new,559.4049999999697,1,mason,new,new
107993,i7460474,drmtask,1,bhIADPTB1488276290017,353,qb2cc56h97zynih9,1,,,,,,,,,,,,,,,,,,,,,,,,,,,,,,,,,,,,,,,,,,,,,,,,,,,,,,,,,,,,,,,,,,,,,,,,,,,,,,,,,,,,,,,,,,,,new,574.0099999999511,1,hopping,new,new
107993,i7460474,drmtask,1,bhIADPTB1488276290017,354,qb2cc56h97zynih9,1,,,,,,,,,,,,,,,,,,,,,,,,,,,,,,,,,,,,,,,,,,,,,,,,,,,,,,,,,,,,,,,,,,,,,,,,,,,,,,,,,,,,,,,,,,,,old,778.359999999986,1,health,old,old
107993,i7460474,drmtask,1,bhIADPTB1488276290017,355,qb2cc56h97zynih9,1,,,,,,,,,,,,,,,,,,,,,,,,,,,,,,,,,,,,,,,,,,,,,,,,,,,,,,,,,,,,,,,,,,,,,,,,,,,,,,,,,,,,,,,,,,,,old,722.1849999999395,1,nurse,old,old
107993,i7460474,drmtask,1,bhIADPTB1488276290017,356,qb2cc56h97zynih9,1,,,,,,,,,,,,,,,,,,,,,,,,,,,,,,,,,,,,,,,,,,,,,,,,,,,,,,,,,,,,,,,,,,,,,,,,,,,,,,,,,,,,,,,,,,,,new,1279.875,0,clinic,old,old
107993,i7460474,drmtask,1,bhIADPTB1488276290017,357,qb2cc56h97zynih9,1,,,,,,,,,,,,,,,,,,,,,,,,,,,,,,,,,,,,,,,,,,,,,,,,,,,,,,,,,,,,,,,,,,,,,,,,,,,,,,,,,,,,,,,,,,,,old,663.0599999999977,1,dentist,old,old
107993,i7460474,drmtask,1,bhIADPTB1488276290017,358,qb2cc56h97zynih9,1,,,,,,,,,,,,,,,,,,,,,,,,,,,,,,,,,,,,,,,,,,,,,,,,,,,,,,,,,,,,,,,,,,,,,,,,,,,,,,,,,,,,,,,,,,,,old,692.5900000000256,1,hospital,old,old
107993,i7460474,drmtask,1,bhIADPTB1488276290017,359,qb2cc56h97zynih9,1,,,,,,,,,,,,,,,,,,,,,,,,,,,,,,,,,,,,,,,,,,,,,,,,,,,,,,,,,,,,,,,,,,,,,,,,,,,,,,,,,,,,,,,,,,,,old,624.125,1,ill,old,old
107993,i7460474,drmtask,1,bhIADPTB1488276290017,360,qb2cc56h97zynih9,1,,,,,,,,,,,,,,,,,,,,,,,,,,,,,,,,,,,,,,,,,,,,,,,,,,,,,,,,,,,,,,,,,,,,,,,,,,,,,,,,,,,,,,,,,,,,old,952.3449999999721,1,medicine,old,old
107993,i7460474,drmtask,1,bhIADPTB1488276290017,361,qb2cc56h97zynih9,1,,,,,,,,,,,,,,,,,,,,,,,,,,,,,,,,,,,,,,,,,,,,,,,,,,,,,,,,,,,,,,,,,,,,,,,,,,,,,,,,,,,,,,,,,,,,new,684.3150000000023,1,venom,new,new
107993,i7460474,drmtask,1,bhIADPTB1488276290017,362,qb2cc56h97zynih9,1,,,,,,,,,,,,,,,,,,,,,,,,,,,,,,,,,,,,,,,,,,,,,,,,,,,,,,,,,,,,,,,,,,,,,,,,,,,,,,,,,,,,,,,,,,,,new,606.4749999999767,1,briefly,new,new
107993,i7460474,drmtask,1,bhIADPTB1488276290017,363,qb2cc56h97zynih9,1,,,,,,,,,,,,,,,,,,,,,,,,,,,,,,,,,,,,,,,,,,,,,,,,,,,,,,,,,,,,,,,,,,,,,,,,,,,,,,,,,,,,,,,,,,,,new,530.320000000007,0,sick,old,old
107993,i7460474,drmtask,1,bhIADPTB1488276290017,364,qb2cc56h97zynih9,1,,,,,,,,,,,,,,,,,,,,,,,,,,,,,,,,,,,,,,,,,,,,,,,,,,,,,,,,,,,,,,,,,,,,,,,,,,,,,,,,,,,,,,,,,,,,old,705.4649999999674,1,surgeon,old,old
107993,i7460474,drmtask,1,bhIADPTB1488276290017,365,qb2cc56h97zynih9,1,,,,,,,,,,,,,,,,,,,,,,,,,,,,,,,,,,,,,,,,,,,,,,,,,,,,,,,,,,,,,,,,,,,,,,,,,,,,,,,,,,,,,,,,,,,,new,738.8700000000536,1,dove,new,new
107993,i7460474,drmtask,1,bhIADPTB1488276290017,366,qb2cc56h97zynih9,1,,,,,,,,,,,,,,,,,,,,,,,,,,,,,,,,,,,,,,,,,,,,,,,,,,,,,,,,,,,,,,,,,,,,,,,,,,,,,,,,,,,,,,,,,,,,new,726.7799999999697,1,anchor,new,new
107993,i7460474,drmtask,1,bhIADPTB1488276290017,367,qb2cc56h97zynih9,1,,,,,,,,,,,,,,,,,,,,,,,,,,,,,,,,,,,,,,,,,,,,,,,,,,,,,,,,,,,,,,,,,,,,,,,,,,,,,,,,,,,,,,,,,,,,old,1294.0650000000023,1,office,old,old
107993,i7460474,drmtask,1,bhIADPTB1488276290017,368,qb2cc56h97zynih9,1,,,,,,,,,,,,,,,,,,,,,,,,,,,,,,,,,,,,,,,,,,,,,,,,,,,,,,,,,,,,,,,,,,,,,,,,,,,,,,,,,,,,,,,,,,,,new,802.3949999999604,0,cure,old,old
107993,i7460474,drmtask,1,bhIADPTB1488276290017,369,jtj4uqvkem4udqh3,1,,,,,,,,,,,,,,,,,,,,,,,,,,,,,,,,,,,,,,,,,,,,,,,,,,,,,,,,,,,,,,,,,,,,,,,,,,,,,,,,,,,,,,,,,,,,,,,,,,,2000.6200000000536,0,hot,Cold,old
107993,i7460474,drmtask,1,bhIADPTB1488276290017,370,jtj4uqvkem4udqh3,1,,,,,,,,,,,,,,,,,,,,,,,,,,,,,,,,,,,,,,,,,,,,,,,,,,,,,,,,,,,,,,,,,,,,,,,,,,,,,,,,,,,,,,,,,,,,,,,,,,,2001.125,0,heat,Cold,old
107993,i7460474,drmtask,1,bhIADPTB1488276290017,371,jtj4uqvkem4udqh3,1,,,,,,,,,,,,,,,,,,,,,,,,,,,,,,,,,,,,,,,,,,,,,,,,,,,,,,,,,,,,,,,,,,,,,,,,,,,,,,,,,,,,,,,,,,,,,,,,,,,2001.1799999999348,0,winter,Cold,old
107993,i7460474,drmtask,1,bhIADPTB1488276290017,372,jtj4uqvkem4udqh3,1,,,,,,,,,,,,,,,,,,,,,,,,,,,,,,,,,,,,,,,,,,,,,,,,,,,,,,,,,,,,,,,,,,,,,,,,,,,,,,,,,,,,,,,,,,,,,,,,,,,2000.7149999999674,0,snow,Cold,old
107993,i7460474,drmtask,1,bhIADPTB1488276290017,373,jtj4uqvkem4udqh3,1,,,,,,,,,,,,,,,,,,,,,,,,,,,,,,,,,,,,,,,,,,,,,,,,,,,,,,,,,,,,,,,,,,,,,,,,,,,,,,,,,,,,,,,,,,,,,,,,,,,2000.6049999999814,0,Arctic,Cold,old
107993,i7460474,drmtask,1,bhIADPTB1488276290017,374,jtj4uqvkem4udqh3,1,,,,,,,,,,,,,,,,,,,,,,,,,,,,,,,,,,,,,,,,,,,,,,,,,,,,,,,,,,,,,,,,,,,,,,,,,,,,,,,,,,,,,,,,,,,,,,,,,,,2000.9199999999837,0,warm,Cold,old
107993,i7460474,drmtask,1,bhIADPTB1488276290017,375,jtj4uqvkem4udqh3,1,,,,,,,,,,,,,,,,,,,,,,,,,,,,,,,,,,,,,,,,,,,,,,,,,,,,,,,,,,,,,,,,,,,,,,,,,,,,,,,,,,,,,,,,,,,,,,,,,,,2000.7099999999627,0,ice,Cold,old
107993,i7460474,drmtask,1,bhIADPTB1488276290017,376,jtj4uqvkem4udqh3,1,,,,,,,,,,,,,,,,,,,,,,,,,,,,,,,,,,,,,,,,,,,,,,,,,,,,,,,,,,,,,,,,,,,,,,,,,,,,,,,,,,,,,,,,,,,,,,,,,,,2001.0449999999837,0,freeze,Cold,old
107993,i7460474,drmtask,1,bhIADPTB1488276290017,377,jtj4uqvkem4udqh3,1,,,,,,,,,,,,,,,,,,,,,,,,,,,,,,,,,,,,,,,,,,,,,,,,,,,,,,,,,,,,,,,,,,,,,,,,,,,,,,,,,,,,,,,,,,,,,,,,,,,2000.719999999972,0,frost,Cold,old
107993,i7460474,drmtask,1,bhIADPTB1488276290017,378,jtj4uqvkem4udqh3,1,,,,,,,,,,,,,,,,,,,,,,,,,,,,,,,,,,,,,,,,,,,,,,,,,,,,,,,,,,,,,,,,,,,,,,,,,,,,,,,,,,,,,,,,,,,,,,,,,,,2000.5849999999627,0,weather,Cold,old
107993,i7460474,drmtask,1,bhIADPTB1488276290017,379,jtj4uqvkem4udqh3,1,,,,,,,,,,,,,,,,,,,,,,,,,,,,,,,,,,,,,,,,,,,,,,,,,,,,,,,,,,,,,,,,,,,,,,,,,,,,,,,,,,,,,,,,,,,,,,,,,,,2009.0750000000698,0,frigid,Cold,old
107993,i7460474,drmtask,1,bhIADPTB1488276290017,380,jtj4uqvkem4udqh3,1,,,,,,,,,,,,,,,,,,,,,,,,,,,,,,,,,,,,,,,,,,,,,,,,,,,,,,,,,,,,,,,,,,,,,,,,,,,,,,,,,,,,,,,,,,,,,,,,,,,2000.4550000000163,0,shiver,Cold,old
107993,i7460474,drmtask,1,bhIADPTB1488276290017,381,jtj4uqvkem4udqh3,1,,,,,,,,,,,,,,,,,,,,,,,,,,,,,,,,,,,,,,,,,,,,,,,,,,,,,,,,,,,,,,,,,,,,,,,,,,,,,,,,,,,,,,,,,,,,,,,,,,,2001.1599999999744,0,air,Cold,old
107993,i7460474,drmtask,1,bhIADPTB1488276290017,382,jtj4uqvkem4udqh3,1,,,,,,,,,,,,,,,,,,,,,,,,,,,,,,,,,,,,,,,,,,,,,,,,,,,,,,,,,,,,,,,,,,,,,,,,,,,,,,,,,,,,,,,,,,,,,,,,,,,2000.6750000000466,0,wet,Cold,old
107993,i7460474,drmtask,1,bhIADPTB1488276290017,383,jtj4uqvkem4udqh3,1,,,,,,,,,,,,,,,,,,,,,,,,,,,,,,,,,,,,,,,,,,,,,,,,,,,,,,,,,,,,,,,,,,,,,,,,,,,,,,,,,,,,,,,,,,,,,,,,,,,2000.509999999951,0,chilly,Cold,old
107993,i7460474,drmtask,1,bhIADPTB1488276290017,384,ahh7pbve55xzpoq8,1,,,,,,,,,,,,,,,,,,,,,,,,,,,,,,,,,,,,,,,,,,,,,,,,,,,,,,,,,,,,,,,,,,,,,,,,,,,,,,,,,,,,,,,,,,,,,,,,,,,,,,,,old,1701.5050000000047,1,chilly,old,old
107993,i7460474,drmtask,1,bhIADPTB1488276290017,385,ahh7pbve55xzpoq8,1,,,,,,,,,,,,,,,,,,,,,,,,,,,,,,,,,,,,,,,,,,,,,,,,,,,,,,,,,,,,,,,,,,,,,,,,,,,,,,,,,,,,,,,,,,,,,,,,,,,,,,,,new,805.5050000000047,1,meters,new,new
107993,i7460474,drmtask,1,bhIADPTB1488276290017,386,ahh7pbve55xzpoq8,1,,,,,,,,,,,,,,,,,,,,,,,,,,,,,,,,,,,,,,,,,,,,,,,,,,,,,,,,,,,,,,,,,,,,,,,,,,,,,,,,,,,,,,,,,,,,,,,,,,,,,,,,old,723.2849999999162,1,wet,old,old
107993,i7460474,drmtask,1,bhIADPTB1488276290017,387,ahh7pbve55xzpoq8,1,,,,,,,,,,,,,,,,,,,,,,,,,,,,,,,,,,,,,,,,,,,,,,,,,,,,,,,,,,,,,,,,,,,,,,,,,,,,,,,,,,,,,,,,,,,,,,,,,,,,,,,,old,733.3499999999767,1,Arctic,old,old
107993,i7460474,drmtask,1,bhIADPTB1488276290017,388,ahh7pbve55xzpoq8,1,,,,,,,,,,,,,,,,,,,,,,,,,,,,,,,,,,,,,,,,,,,,,,,,,,,,,,,,,,,,,,,,,,,,,,,,,,,,,,,,,,,,,,,,,,,,,,,,,,,,,,,,new,731.1849999999395,1,leased,new,new
107993,i7460474,drmtask,1,bhIADPTB1488276290017,389,ahh7pbve55xzpoq8,1,,,,,,,,,,,,,,,,,,,,,,,,,,,,,,,,,,,,,,,,,,,,,,,,,,,,,,,,,,,,,,,,,,,,,,,,,,,,,,,,,,,,,,,,,,,,,,,,,,,,,,,,old,743.4800000000978,1,frigid,old,old
107993,i7460474,drmtask,1,bhIADPTB1488276290017,390,ahh7pbve55xzpoq8,1,,,,,,,,,,,,,,,,,,,,,,,,,,,,,,,,,,,,,,,,,,,,,,,,,,,,,,,,,,,,,,,,,,,,,,,,,,,,,,,,,,,,,,,,,,,,,,,,,,,,,,,,new,892.4049999999115,1,slick,new,new
107993,i7460474,drmtask,1,bhIADPTB1488276290017,391,ahh7pbve55xzpoq8,1,,,,,,,,,,,,,,,,,,,,,,,,,,,,,,,,,,,,,,,,,,,,,,,,,,,,,,,,,,,,,,,,,,,,,,,,,,,,,,,,,,,,,,,,,,,,,,,,,,,,,,,,old,1156.6749999999302,1,shiver,old,old
107993,i7460474,drmtask,1,bhIADPTB1488276290017,392,ahh7pbve55xzpoq8,1,,,,,,,,,,,,,,,,,,,,,,,,,,,,,,,,,,,,,,,,,,,,,,,,,,,,,,,,,,,,,,,,,,,,,,,,,,,,,,,,,,,,,,,,,,,,,,,,,,,,,,,,new,619.8549999999814,1,basics,new,new
107993,i7460474,drmtask,1,bhIADPTB1488276290017,393,ahh7pbve55xzpoq8,1,,,,,,,,,,,,,,,,,,,,,,,,,,,,,,,,,,,,,,,,,,,,,,,,,,,,,,,,,,,,,,,,,,,,,,,,,,,,,,,,,,,,,,,,,,,,,,,,,,,,,,,,new,783.5999999999767,1,dilemma,new,new
107993,i7460474,drmtask,1,bhIADPTB1488276290017,394,ahh7pbve55xzpoq8,1,,,,,,,,,,,,,,,,,,,,,,,,,,,,,,,,,,,,,,,,,,,,,,,,,,,,,,,,,,,,,,,,,,,,,,,,,,,,,,,,,,,,,,,,,,,,,,,,,,,,,,,,new,2252.6999999999534,1,termed,new,new
107993,i7460474,drmtask,1,bhIADPTB1488276290017,395,ahh7pbve55xzpoq8,1,,,,,,,,,,,,,,,,,,,,,,,,,,,,,,,,,,,,,,,,,,,,,,,,,,,,,,,,,,,,,,,,,,,,,,,,,,,,,,,,,,,,,,,,,,,,,,,,,,,,,,,,old,663.8950000000186,0,cold,lure,new
107993,i7460474,drmtask,1,bhIADPTB1488276290017,396,ahh7pbve55xzpoq8,1,,,,,,,,,,,,,,,,,,,,,,,,,,,,,,,,,,,,,,,,,,,,,,,,,,,,,,,,,,,,,,,,,,,,,,,,,,,,,,,,,,,,,,,,,,,,,,,,,,,,,,,,new,640.2500000001164,1,vessels,new,new
107993,i7460474,drmtask,1,bhIADPTB1488276290017,397,ahh7pbve55xzpoq8,1,,,,,,,,,,,,,,,,,,,,,,,,,,,,,,,,,,,,,,,,,,,,,,,,,,,,,,,,,,,,,,,,,,,,,,,,,,,,,,,,,,,,,,,,,,,,,,,,,,,,,,,,new,652.7800000000279,1,retreat,new,new
107993,i7460474,drmtask,1,bhIADPTB1488276290017,398,ahh7pbve55xzpoq8,1,,,,,,,,,,,,,,,,,,,,,,,,,,,,,,,,,,,,,,,,,,,,,,,,,,,,,,,,,,,,,,,,,,,,,,,,,,,,,,,,,,,,,,,,,,,,,,,,,,,,,,,,new,905.2149999999674,1,mouths,new,new
107993,i7460474,drmtask,1,bhIADPTB1488276290017,399,ahh7pbve55xzpoq8,1,,,,,,,,,,,,,,,,,,,,,,,,,,,,,,,,,,,,,,,,,,,,,,,,,,,,,,,,,,,,,,,,,,,,,,,,,,,,,,,,,,,,,,,,,,,,,,,,,,,,,,,,new,552.5400000000373,1,fungi,new,new
107993,i7460474,drmtask,1,bhIADPTB1488276290017,400,ahh7pbve55xzpoq8,1,,,,,,,,,,,,,,,,,,,,,,,,,,,,,,,,,,,,,,,,,,,,,,,,,,,,,,,,,,,,,,,,,,,,,,,,,,,,,,,,,,,,,,,,,,,,,,,,,,,,,,,,old,670.7149999999674,1,ice,old,old
107993,i7460474,drmtask,1,bhIADPTB1488276290017,401,ahh7pbve55xzpoq8,1,,,,,,,,,,,,,,,,,,,,,,,,,,,,,,,,,,,,,,,,,,,,,,,,,,,,,,,,,,,,,,,,,,,,,,,,,,,,,,,,,,,,,,,,,,,,,,,,,,,,,,,,new,707.1549999999115,1,redwood,new,new
107993,i7460474,drmtask,1,bhIADPTB1488276290017,402,ahh7pbve55xzpoq8,1,,,,,,,,,,,,,,,,,,,,,,,,,,,,,,,,,,,,,,,,,,,,,,,,,,,,,,,,,,,,,,,,,,,,,,,,,,,,,,,,,,,,,,,,,,,,,,,,,,,,,,,,new,1303.3850000001257,1,prom,new,new
107993,i7460474,drmtask,1,bhIADPTB1488276290017,403,ahh7pbve55xzpoq8,1,,,,,,,,,,,,,,,,,,,,,,,,,,,,,,,,,,,,,,,,,,,,,,,,,,,,,,,,,,,,,,,,,,,,,,,,,,,,,,,,,,,,,,,,,,,,,,,,,,,,,,,,new,586.375,1,preview,new,new
107993,i7460474,drmtask,1,bhIADPTB1488276290017,404,ahh7pbve55xzpoq8,1,,,,,,,,,,,,,,,,,,,,,,,,,,,,,,,,,,,,,,,,,,,,,,,,,,,,,,,,,,,,,,,,,,,,,,,,,,,,,,,,,,,,,,,,,,,,,,,,,,,,,,,,old,579.7399999999907,1,hot,old,old
107993,i7460474,drmtask,1,bhIADPTB1488276290017,405,ahh7pbve55xzpoq8,1,,,,,,,,,,,,,,,,,,,,,,,,,,,,,,,,,,,,,,,,,,,,,,,,,,,,,,,,,,,,,,,,,,,,,,,,,,,,,,,,,,,,,,,,,,,,,,,,,,,,,,,,old,787.4649999999674,1,weather,old,old
107993,i7460474,drmtask,1,bhIADPTB1488276290017,406,ahh7pbve55xzpoq8,1,,,,,,,,,,,,,,,,,,,,,,,,,,,,,,,,,,,,,,,,,,,,,,,,,,,,,,,,,,,,,,,,,,,,,,,,,,,,,,,,,,,,,,,,,,,,,,,,,,,,,,,,old,644.2750000000233,1,snow,old,old
107993,i7460474,drmtask,1,bhIADPTB1488276290017,407,ahh7pbve55xzpoq8,1,,,,,,,,,,,,,,,,,,,,,,,,,,,,,,,,,,,,,,,,,,,,,,,,,,,,,,,,,,,,,,,,,,,,,,,,,,,,,,,,,,,,,,,,,,,,,,,,,,,,,,,,old,597.1999999999534,1,warm,old,old
107993,i7460474,drmtask,1,bhIADPTB1488276290017,408,ahh7pbve55xzpoq8,1,,,,,,,,,,,,,,,,,,,,,,,,,,,,,,,,,,,,,,,,,,,,,,,,,,,,,,,,,,,,,,,,,,,,,,,,,,,,,,,,,,,,,,,,,,,,,,,,,,,,,,,,old,604.3300000000745,1,winter,old,old
107993,i7460474,drmtask,1,bhIADPTB1488276290017,409,ahh7pbve55xzpoq8,1,,,,,,,,,,,,,,,,,,,,,,,,,,,,,,,,,,,,,,,,,,,,,,,,,,,,,,,,,,,,,,,,,,,,,,,,,,,,,,,,,,,,,,,,,,,,,,,,,,,,,,,,old,753.265000000014,1,freeze,old,old
107993,i7460474,drmtask,1,bhIADPTB1488276290017,410,ahh7pbve55xzpoq8,1,,,,,,,,,,,,,,,,,,,,,,,,,,,,,,,,,,,,,,,,,,,,,,,,,,,,,,,,,,,,,,,,,,,,,,,,,,,,,,,,,,,,,,,,,,,,,,,,,,,,,,,,new,1491.5550000000512,0,frost,old,old
107993,i7460474,drmtask,1,bhIADPTB1488276290017,411,ahh7pbve55xzpoq8,1,,,,,,,,,,,,,,,,,,,,,,,,,,,,,,,,,,,,,,,,,,,,,,,,,,,,,,,,,,,,,,,,,,,,,,,,,,,,,,,,,,,,,,,,,,,,,,,,,,,,,,,,new,1291.329999999958,1,imagery,new,new
107993,i7460474,drmtask,1,bhIADPTB1488276290017,412,ahh7pbve55xzpoq8,1,,,,,,,,,,,,,,,,,,,,,,,,,,,,,,,,,,,,,,,,,,,,,,,,,,,,,,,,,,,,,,,,,,,,,,,,,,,,,,,,,,,,,,,,,,,,,,,,,,,,,,,,new,1188.359999999986,1,thicker,new,new
107993,i7460474,drmtask,1,bhIADPTB1488276290017,413,ahh7pbve55xzpoq8,1,,,,,,,,,,,,,,,,,,,,,,,,,,,,,,,,,,,,,,,,,,,,,,,,,,,,,,,,,,,,,,,,,,,,,,,,,,,,,,,,,,,,,,,,,,,,,,,,,,,,,,,,new,667.8899999998976,0,air,old,old
107993,i7460474,drmtask,1,bhIADPTB1488276290017,414,ahh7pbve55xzpoq8,1,,,,,,,,,,,,,,,,,,,,,,,,,,,,,,,,,,,,,,,,,,,,,,,,,,,,,,,,,,,,,,,,,,,,,,,,,,,,,,,,,,,,,,,,,,,,,,,,,,,,,,,,old,625.7699999999022,1,heat,old,old
107993,i7460474,drmtask,1,bhIADPTB1488276290017,415,2exposure,1,,,,,,,,,,,,,,,,,,,,,,,,,,,,,,,,,,,,,,,,,,,,,,,,,,,,,,,,,,,,,,,,,,,,,,,,,,,,,,,,,,,,,,,,,,,,,,,,,,,,,,,,,,,,,,,2000.170000000042,0,keys,Car,old
107993,i7460474,drmtask,1,bhIADPTB1488276290017,416,2exposure,1,,,,,,,,,,,,,,,,,,,,,,,,,,,,,,,,,,,,,,,,,,,,,,,,,,,,,,,,,,,,,,,,,,,,,,,,,,,,,,,,,,,,,,,,,,,,,,,,,,,,,,,,,,,,,,,2001.094999999972,0,jeep,Car,old
107993,i7460474,drmtask,1,bhIADPTB1488276290017,417,2exposure,1,,,,,,,,,,,,,,,,,,,,,,,,,,,,,,,,,,,,,,,,,,,,,,,,,,,,,,,,,,,,,,,,,,,,,,,,,,,,,,,,,,,,,,,,,,,,,,,,,,,,,,,,,,,,,,,2000.1900000000605,0,truck,Car,old
107993,i7460474,drmtask,1,bhIADPTB1488276290017,418,2exposure,1,,,,,,,,,,,,,,,,,,,,,,,,,,,,,,,,,,,,,,,,,,,,,,,,,,,,,,,,,,,,,,,,,,,,,,,,,,,,,,,,,,,,,,,,,,,,,,,,,,,,,,,,,,,,,,,2000.7550000000047,0,taxi,Car,old
107993,i7460474,drmtask,1,bhIADPTB1488276290017,419,2exposure,1,,,,,,,,,,,,,,,,,,,,,,,,,,,,,,,,,,,,,,,,,,,,,,,,,,,,,,,,,,,,,,,,,,,,,,,,,,,,,,,,,,,,,,,,,,,,,,,,,,,,,,,,,,,,,,,2000.3850000000093,0,garage,Car,old
107993,i7460474,drmtask,1,bhIADPTB1488276290017,420,2exposure,1,,,,,,,,,,,,,,,,,,,,,,,,,,,,,,,,,,,,,,,,,,,,,,,,,,,,,,,,,,,,,,,,,,,,,,,,,,,,,,,,,,,,,,,,,,,,,,,,,,,,,,,,,,,,,,,2000.7949999999255,0,vehicle,Car,old
107993,i7460474,drmtask,1,bhIADPTB1488276290017,421,2exposure,1,,,,,,,,,,,,,,,,,,,,,,,,,,,,,,,,,,,,,,,,,,,,,,,,,,,,,,,,,,,,,,,,,,,,,,,,,,,,,,,,,,,,,,,,,,,,,,,,,,,,,,,,,,,,,,,2001.1999999999534,0,highway,Car,old
107993,i7460474,drmtask,1,bhIADPTB1488276290017,422,2exposure,1,,,,,,,,,,,,,,,,,,,,,,,,,,,,,,,,,,,,,,,,,,,,,,,,,,,,,,,,,,,,,,,,,,,,,,,,,,,,,,,,,,,,,,,,,,,,,,,,,,,,,,,,,,,,,,,2000.6600000000326,0,automobile,Car,old
107993,i7460474,drmtask,1,bhIADPTB1488276290017,423,2exposure,1,,,,,,,,,,,,,,,,,,,,,,,,,,,,,,,,,,,,,,,,,,,,,,,,,,,,,,,,,,,,,,,,,,,,,,,,,,,,,,,,,,,,,,,,,,,,,,,,,,,,,,,,,,,,,,,2000.734999999986,0,sedan,Car,old
107993,i7460474,drmtask,1,bhIADPTB1488276290017,424,2exposure,1,,,,,,,,,,,,,,,,,,,,,,,,,,,,,,,,,,,,,,,,,,,,,,,,,,,,,,,,,,,,,,,,,,,,,,,,,,,,,,,,,,,,,,,,,,,,,,,,,,,,,,,,,,,,,,,2000.579999999958,0,van,Car,old
107993,i7460474,drmtask,1,bhIADPTB1488276290017,425,2exposure,1,,,,,,,,,,,,,,,,,,,,,,,,,,,,,,,,,,,,,,,,,,,,,,,,,,,,,,,,,,,,,,,,,,,,,,,,,,,,,,,,,,,,,,,,,,,,,,,,,,,,,,,,,,,,,,,2000.384999999893,0,bus,Car,old
107993,i7460474,drmtask,1,bhIADPTB1488276290017,426,2exposure,1,,,,,,,,,,,,,,,,,,,,,,,,,,,,,,,,,,,,,,,,,,,,,,,,,,,,,,,,,,,,,,,,,,,,,,,,,,,,,,,,,,,,,,,,,,,,,,,,,,,,,,,,,,,,,,,2000.454999999958,0,train,Car,old
107993,i7460474,drmtask,1,bhIADPTB1488276290017,427,2exposure,1,,,,,,,,,,,,,,,,,,,,,,,,,,,,,,,,,,,,,,,,,,,,,,,,,,,,,,,,,,,,,,,,,,,,,,,,,,,,,,,,,,,,,,,,,,,,,,,,,,,,,,,,,,,,,,,2000.759999999893,0,Ford,Car,old
107993,i7460474,drmtask,1,bhIADPTB1488276290017,428,2exposure,1,,,,,,,,,,,,,,,,,,,,,,,,,,,,,,,,,,,,,,,,,,,,,,,,,,,,,,,,,,,,,,,,,,,,,,,,,,,,,,,,,,,,,,,,,,,,,,,,,,,,,,,,,,,,,,,2001.7399999998743,0,drive,Car,old
107993,i7460474,drmtask,1,bhIADPTB1488276290017,429,2exposure,1,,,,,,,,,,,,,,,,,,,,,,,,,,,,,,,,,,,,,,,,,,,,,,,,,,,,,,,,,,,,,,,,,,,,,,,,,,,,,,,,,,,,,,,,,,,,,,,,,,,,,,,,,,,,,,,2000.3300000000745,0,race,Car,old
107993,i7460474,drmtask,1,bhIADPTB1488276290017,430,2response,1,,,,,,,,,,,,,,,,,,,,,,,,,,,,,,,,,,,,,,,,,,,,,,,,,,,,,,,,,,,,,,,,,,,,,,,,,,,,,,,,,,,,,,,,,,,,,,,,,,,,,,,,,,,,,,,,,,,,old,2899.5,1,sedan,old,old
107993,i7460474,drmtask,1,bhIADPTB1488276290017,431,2response,1,,,,,,,,,,,,,,,,,,,,,,,,,,,,,,,,,,,,,,,,,,,,,,,,,,,,,,,,,,,,,,,,,,,,,,,,,,,,,,,,,,,,,,,,,,,,,,,,,,,,,,,,,,,,,,,,,,,,new,1077.655000000028,0,race,old,old
107993,i7460474,drmtask,1,bhIADPTB1488276290017,432,2response,1,,,,,,,,,,,,,,,,,,,,,,,,,,,,,,,,,,,,,,,,,,,,,,,,,,,,,,,,,,,,,,,,,,,,,,,,,,,,,,,,,,,,,,,,,,,,,,,,,,,,,,,,,,,,,,,,,,,,new,2355.6350000000093,1,opens,new,new
107993,i7460474,drmtask,1,bhIADPTB1488276290017,433,2response,1,,,,,,,,,,,,,,,,,,,,,,,,,,,,,,,,,,,,,,,,,,,,,,,,,,,,,,,,,,,,,,,,,,,,,,,,,,,,,,,,,,,,,,,,,,,,,,,,,,,,,,,,,,,,,,,,,,,,old,730.140000000014,1,garage,old,old
107993,i7460474,drmtask,1,bhIADPTB1488276290017,434,2response,1,,,,,,,,,,,,,,,,,,,,,,,,,,,,,,,,,,,,,,,,,,,,,,,,,,,,,,,,,,,,,,,,,,,,,,,,,,,,,,,,,,,,,,,,,,,,,,,,,,,,,,,,,,,,,,,,,,,,new,1446.1650000000373,0,van,old,old
107993,i7460474,drmtask,1,bhIADPTB1488276290017,435,2response,1,,,,,,,,,,,,,,,,,,,,,,,,,,,,,,,,,,,,,,,,,,,,,,,,,,,,,,,,,,,,,,,,,,,,,,,,,,,,,,,,,,,,,,,,,,,,,,,,,,,,,,,,,,,,,,,,,,,,new,610.015000000014,1,primal,new,new
107993,i7460474,drmtask,1,bhIADPTB1488276290017,436,2response,1,,,,,,,,,,,,,,,,,,,,,,,,,,,,,,,,,,,,,,,,,,,,,,,,,,,,,,,,,,,,,,,,,,,,,,,,,,,,,,,,,,,,,,,,,,,,,,,,,,,,,,,,,,,,,,,,,,,,new,558.9149999999208,1,leaned,new,new
107993,i7460474,drmtask,1,bhIADPTB1488276290017,437,2response,1,,,,,,,,,,,,,,,,,,,,,,,,,,,,,,,,,,,,,,,,,,,,,,,,,,,,,,,,,,,,,,,,,,,,,,,,,,,,,,,,,,,,,,,,,,,,,,,,,,,,,,,,,,,,,,,,,,,,new,506.30999999993946,1,grammar,new,new
107993,i7460474,drmtask,1,bhIADPTB1488276290017,438,2response,1,,,,,,,,,,,,,,,,,,,,,,,,,,,,,,,,,,,,,,,,,,,,,,,,,,,,,,,,,,,,,,,,,,,,,,,,,,,,,,,,,,,,,,,,,,,,,,,,,,,,,,,,,,,,,,,,,,,,new,815.2249999999767,0,train,old,old
107993,i7460474,drmtask,1,bhIADPTB1488276290017,439,2response,1,,,,,,,,,,,,,,,,,,,,,,,,,,,,,,,,,,,,,,,,,,,,,,,,,,,,,,,,,,,,,,,,,,,,,,,,,,,,,,,,,,,,,,,,,,,,,,,,,,,,,,,,,,,,,,,,,,,,new,537.0799999999581,1,puck,new,new
107993,i7460474,drmtask,1,bhIADPTB1488276290017,440,2response,1,,,,,,,,,,,,,,,,,,,,,,,,,,,,,,,,,,,,,,,,,,,,,,,,,,,,,,,,,,,,,,,,,,,,,,,,,,,,,,,,,,,,,,,,,,,,,,,,,,,,,,,,,,,,,,,,,,,,new,743.1600000000326,1,beef,new,new
107993,i7460474,drmtask,1,bhIADPTB1488276290017,441,2response,1,,,,,,,,,,,,,,,,,,,,,,,,,,,,,,,,,,,,,,,,,,,,,,,,,,,,,,,,,,,,,,,,,,,,,,,,,,,,,,,,,,,,,,,,,,,,,,,,,,,,,,,,,,,,,,,,,,,,new,556.5099999998929,1,Laurie,new,new
107993,i7460474,drmtask,1,bhIADPTB1488276290017,442,2response,1,,,,,,,,,,,,,,,,,,,,,,,,,,,,,,,,,,,,,,,,,,,,,,,,,,,,,,,,,,,,,,,,,,,,,,,,,,,,,,,,,,,,,,,,,,,,,,,,,,,,,,,,,,,,,,,,,,,,new,711.0550000000512,1,pioneer,new,new
107993,i7460474,drmtask,1,bhIADPTB1488276290017,443,2response,1,,,,,,,,,,,,,,,,,,,,,,,,,,,,,,,,,,,,,,,,,,,,,,,,,,,,,,,,,,,,,,,,,,,,,,,,,,,,,,,,,,,,,,,,,,,,,,,,,,,,,,,,,,,,,,,,,,,,new,698.4499999999534,1,tails,new,new
107993,i7460474,drmtask,1,bhIADPTB1488276290017,444,2response,1,,,,,,,,,,,,,,,,,,,,,,,,,,,,,,,,,,,,,,,,,,,,,,,,,,,,,,,,,,,,,,,,,,,,,,,,,,,,,,,,,,,,,,,,,,,,,,,,,,,,,,,,,,,,,,,,,,,,old,683.5300000000279,1,keys,old,old
107993,i7460474,drmtask,1,bhIADPTB1488276290017,445,2response,1,,,,,,,,,,,,,,,,,,,,,,,,,,,,,,,,,,,,,,,,,,,,,,,,,,,,,,,,,,,,,,,,,,,,,,,,,,,,,,,,,,,,,,,,,,,,,,,,,,,,,,,,,,,,,,,,,,,,old,724.6900000000605,1,drive,old,old
107993,i7460474,drmtask,1,bhIADPTB1488276290017,446,2response,1,,,,,,,,,,,,,,,,,,,,,,,,,,,,,,,,,,,,,,,,,,,,,,,,,,,,,,,,,,,,,,,,,,,,,,,,,,,,,,,,,,,,,,,,,,,,,,,,,,,,,,,,,,,,,,,,,,,,old,579.9450000000652,1,vehicle,old,old
107993,i7460474,drmtask,1,bhIADPTB1488276290017,447,2response,1,,,,,,,,,,,,,,,,,,,,,,,,,,,,,,,,,,,,,,,,,,,,,,,,,,,,,,,,,,,,,,,,,,,,,,,,,,,,,,,,,,,,,,,,,,,,,,,,,,,,,,,,,,,,,,,,,,,,new,671.2800000000279,1,climbed,new,new
107993,i7460474,drmtask,1,bhIADPTB1488276290017,448,2response,1,,,,,,,,,,,,,,,,,,,,,,,,,,,,,,,,,,,,,,,,,,,,,,,,,,,,,,,,,,,,,,,,,,,,,,,,,,,,,,,,,,,,,,,,,,,,,,,,,,,,,,,,,,,,,,,,,,,,new,773.6499999999069,1,drums,new,new
107993,i7460474,drmtask,1,bhIADPTB1488276290017,449,2response,1,,,,,,,,,,,,,,,,,,,,,,,,,,,,,,,,,,,,,,,,,,,,,,,,,,,,,,,,,,,,,,,,,,,,,,,,,,,,,,,,,,,,,,,,,,,,,,,,,,,,,,,,,,,,,,,,,,,,old,1058.1949999999488,1,taxi,old,old
107993,i7460474,drmtask,1,bhIADPTB1488276290017,450,2response,1,,,,,,,,,,,,,,,,,,,,,,,,,,,,,,,,,,,,,,,,,,,,,,,,,,,,,,,,,,,,,,,,,,,,,,,,,,,,,,,,,,,,,,,,,,,,,,,,,,,,,,,,,,,,,,,,,,,,old,648.0400000000373,1,jeep,old,old
107993,i7460474,drmtask,1,bhIADPTB1488276290017,451,2response,1,,,,,,,,,,,,,,,,,,,,,,,,,,,,,,,,,,,,,,,,,,,,,,,,,,,,,,,,,,,,,,,,,,,,,,,,,,,,,,,,,,,,,,,,,,,,,,,,,,,,,,,,,,,,,,,,,,,,new,679.1000000000931,1,parks,new,new
107993,i7460474,drmtask,1,bhIADPTB1488276290017,452,2response,1,,,,,,,,,,,,,,,,,,,,,,,,,,,,,,,,,,,,,,,,,,,,,,,,,,,,,,,,,,,,,,,,,,,,,,,,,,,,,,,,,,,,,,,,,,,,,,,,,,,,,,,,,,,,,,,,,,,,new,748.8450000000885,1,kite,new,new
107993,i7460474,drmtask,1,bhIADPTB1488276290017,453,2response,1,,,,,,,,,,,,,,,,,,,,,,,,,,,,,,,,,,,,,,,,,,,,,,,,,,,,,,,,,,,,,,,,,,,,,,,,,,,,,,,,,,,,,,,,,,,,,,,,,,,,,,,,,,,,,,,,,,,,new,641.890000000014,1,melting,new,new
107993,i7460474,drmtask,1,bhIADPTB1488276290017,454,2response,1,,,,,,,,,,,,,,,,,,,,,,,,,,,,,,,,,,,,,,,,,,,,,,,,,,,,,,,,,,,,,,,,,,,,,,,,,,,,,,,,,,,,,,,,,,,,,,,,,,,,,,,,,,,,,,,,,,,,new,449.2300000000978,1,rebate,new,new
107993,i7460474,drmtask,1,bhIADPTB1488276290017,455,2response,1,,,,,,,,,,,,,,,,,,,,,,,,,,,,,,,,,,,,,,,,,,,,,,,,,,,,,,,,,,,,,,,,,,,,,,,,,,,,,,,,,,,,,,,,,,,,,,,,,,,,,,,,,,,,,,,,,,,,new,529.8100000000559,0,highway,old,old
107993,i7460474,drmtask,1,bhIADPTB1488276290017,456,2response,1,,,,,,,,,,,,,,,,,,,,,,,,,,,,,,,,,,,,,,,,,,,,,,,,,,,,,,,,,,,,,,,,,,,,,,,,,,,,,,,,,,,,,,,,,,,,,,,,,,,,,,,,,,,,,,,,,,,,old,1305.5050000000047,1,automobile,old,old
107993,i7460474,drmtask,1,bhIADPTB1488276290017,457,2response,1,,,,,,,,,,,,,,,,,,,,,,,,,,,,,,,,,,,,,,,,,,,,,,,,,,,,,,,,,,,,,,,,,,,,,,,,,,,,,,,,,,,,,,,,,,,,,,,,,,,,,,,,,,,,,,,,,,,,old,1071.5100000000093,1,bus,old,old
107993,i7460474,drmtask,1,bhIADPTB1488276290017,458,2response,1,,,,,,,,,,,,,,,,,,,,,,,,,,,,,,,,,,,,,,,,,,,,,,,,,,,,,,,,,,,,,,,,,,,,,,,,,,,,,,,,,,,,,,,,,,,,,,,,,,,,,,,,,,,,,,,,,,,,old,734.1150000001071,1,truck,old,old
107993,i7460474,drmtask,1,bhIADPTB1488276290017,459,2response,1,,,,,,,,,,,,,,,,,,,,,,,,,,,,,,,,,,,,,,,,,,,,,,,,,,,,,,,,,,,,,,,,,,,,,,,,,,,,,,,,,,,,,,,,,,,,,,,,,,,,,,,,,,,,,,,,,,,,old,708.875,1,Ford,old,old
107993,i7460474,drmtask,1,bhIADPTB1488276290017,460,2response,1,,,,,,,,,,,,,,,,,,,,,,,,,,,,,,,,,,,,,,,,,,,,,,,,,,,,,,,,,,,,,,,,,,,,,,,,,,,,,,,,,,,,,,,,,,,,,,,,,,,,,,,,,,,,,,,,,,,,new,980.8899999998976,1,car,lure,new